time,ax,ay,az
0.0,0.024835707650561634,-0.07501109307234681,-10.001832777422969
0.01,-0.006913215058559233,-0.03894185214102174,-9.748158376693636
0.02,0.032384426905034625,0.06755364462065697,-9.837018816949353
0.03,0.07615149282040128,0.04430955942923978,-9.850074196091551
0.04,-0.011707668736166799,-0.0031319788663617433,-9.829922263749468
0.05,-0.011706847847459028,0.012156172925644654,-9.832332152340731
0.06,0.07896064077536957,-0.014712125281822884,-9.779386509494731
0.07,0.03837173645764544,0.06782916929139911,-9.887971788956312
0.08,-0.023473719296747606,-0.010017628889708195,-9.86388603728958
0.09,0.027128002179298234,0.011592104606742403,-9.79284207229013
0.1,-0.023170884640623113,0.05730150720710325,-9.778852798479335
0.11,-0.023286487678512845,-0.03886857424229533,-9.7779229177532
0.12,0.012098113578301706,0.0779394592248447,-9.849351813946665
0.13,-0.0956640122328899,-0.07652307048716885,-9.858913282463313
0.14,-0.08624589162565165,0.08148210655563994,-9.835331741689396
0.15,-0.028114376462048635,-0.01863377919759873,-9.798006362385765
0.16,-0.05064155601672119,-0.012134937391264089,-9.735726131536373
0.17,0.015712366629763694,-0.09450050855914716,-9.912371859288537
0.18,-0.04540120377606055,-0.022739735868884645,-9.82103643784792
0.19,-0.07061518506676458,-0.05199032655134422,-9.87663392205126
0.2,0.07328243844607771,-0.03038231726867363,-9.892612133867676
0.21,-0.011288815024326784,-0.006865548289443981,-9.761652167732759
0.22,0.003376410234396192,0.047889580723645284,-9.782768771275034
0.23,-0.07123740931067284,0.010380167570031289,-9.787528324202638
0.24,-0.027219136226259134,0.015383832670055692,-9.763948708013451
0.25,0.005546129485493305,-0.05477596944227812,-9.833985944838307
0.26,-0.057549678871115145,-0.04403770448013651,-9.831631875816678
0.27,0.0187849009172836,0.0899362509175656,-9.700713469163873
0.28,-0.03003193449594025,-0.03676005173816233,-9.82232855271298
0.29,-0.01458468748966384,0.08281041260286479,-9.773243394347295
0.3,-0.030085330611469847,-0.012153059944043325,-9.809680922951834
0.31,0.09261390922544689,0.00011439680717520247,-9.90241292650392
0.32,-0.0006748612368966961,0.05351825801149649,-9.912231450190063
0.33,-0.05288554644779502,0.06359462109693283,-9.838949210996995
0.34,0.04112724560515946,-0.005540628013954375,-9.757194937416502
0.35000000000000003,-0.06104218249855112,-0.019412152676076946,-9.770585417168201
0.36,0.010443179750237772,-0.002796022426110656,-9.7642961417888
0.37,-0.09798350619398878,0.016897876411605915,-9.859352308946816
0.38,-0.06640930244492153,0.044565184343487774,-9.729206375493884
0.39,0.009843061793456176,0.00021149294970757883,-9.85824466500932
0.4,0.03692332899977052,0.030944314901157684,-9.799358780066502
0.41000000000000003,0.008568414059498526,0.08191798661354704,-9.810517614495387
0.42,-0.005782414119412027,0.019065480613239233,-9.81869369101573
0.43,-0.01505518477946444,0.015582642800238918,-9.74307039308522
0.44,-0.07392609951837137,-0.0759455412545034,-9.845255526008298
0.45,-0.03599221041973543,-0.13153650684145318,-9.877480262785596
0.46,-0.023031938547989378,0.01941878646150842,-9.80900022568968
0.47000000000000003,0.05285611131094579,-0.0047412115640436125,-9.829991336714327
0.48,0.01718091447842307,-0.025739133745737098,-9.641130854045867
0.49,-0.0881520077681367,0.012176510209317232,-9.776174626178001
0.5,0.01620419846973975,-0.0030201864598454146,-9.830467028760932
0.51,-0.019254114020815827,0.056389012531694926,-9.862805578459355
0.52,-0.03384610001529794,0.004305543412948895,-9.90401442052844
0.53,0.030583814442043396,-0.03734616425350838,-9.861260954286871
0.54,0.05154997612479755,0.049508311947964456,-9.804252911412044
0.55,0.04656400595580993,-0.010856553747310125,-9.738633567420262
0.56,-0.04196087616113193,0.026326834183615356,-9.753915542880604
0.5700000000000001,-0.01546061879256073,-0.023870535309640024,-9.79854525841768
0.58,0.016563171570178198,-0.03249134427487182,-9.826158383285124
0.59,0.04877725635611796,0.0042084115092848075,-9.796559382179392
0.6,-0.0239587118922645,0.000641432177184256,-9.835931899874229
0.61,-0.009282948833190856,0.023991351768341652,-9.724081800211806
0.62,-0.05531674870030141,-0.013432287665487128,-9.819459509063755
0.63,-0.05981033120403354,-0.09181798918851987,-9.814316892912338
0.64,0.040626291119709904,-0.021638694179419434,-9.920791121251034
0.65,0.06781200142854114,0.03969092335719079,-9.81977174232614
0.66,-0.0036005060790166923,-0.014868803962155322,-9.768175793101754
0.67,0.05017664489460121,-0.012319170125727402,-9.863386128851928
0.68,0.018081801252381707,0.04931882529529685,-9.847536016724641
0.6900000000000001,-0.032255987730256216,-0.03559866136294614,-9.770364449113318
0.7000000000000001,0.018069780275420697,-0.07714016091214498,-9.883832861175904
0.71,0.07690182832329846,-0.008031555976274718,-9.757109949622905
0.72,-0.001791301955497577,-0.024208697562436852,-9.836607194508655
0.73,0.07823218279070032,-0.0483123159876627,-9.82942841102456
0.74,-0.13098725520448723,-0.008768922794934537,-9.866193920256281
0.75,0.04109512521876119,0.024575282362339183,-9.791097686978606
0.76,0.004352353411908562,-0.00046442807839078737,-9.687006400748531
0.77,-0.014950367523293373,0.015349053634311889,-9.77092513802697
0.78,0.004588038826775115,0.09067038492577116,-9.853214263097028
0.79,-0.09937844573004465,-0.017143943077878206,-9.753218970725428
0.8,-0.010983594391875597,0.01391743173223348,-9.825833977296712
0.81,0.017855628575587323,-0.025460668129956728,-9.741275750928622
0.8200000000000001,0.07389470223707581,-0.04231798599434865,-9.769666179891782
0.8300000000000001,-0.02591351091368237,-0.029245382670888494,-9.957157078273587
0.84,-0.040424680144659386,-0.023937928576084427,-9.860203981647752
0.85,-0.02508785217922683,0.01797378987735628,-9.76278073885823
0.86,0.04577010588510371,0.11745378933503788,-9.80241713639275
0.87,0.016437555482984225,-0.03580217181379202,-9.861187797385393
0.88,-0.02648801018835194,-0.02083126528077313,-9.841679475774692
0.89,0.025663371655667806,-0.003156150655562413,-9.90531183100447
0.9,0.004853877467402019,0.019789942435487356,-9.814418664376321
0.91,0.04843224952664446,0.013177540597739248,-9.699465513699213
0.92,-0.03510265469386762,0.06420478969740587,-9.769753330463384
0.93,-0.016383107329888413,-0.12131960352676041,-9.700479149940579
0.9400000000000001,-0.019605407656607884,-0.11934649350978364,-9.7658801455105
0.9500000000000001,-0.07317574740660593,-0.024793908600507467,-9.758626032832366
0.96,0.014806013853228803,0.05486500937718544,-9.71129606561275
0.97,0.013052763608994468,-0.07828240158027983,-9.791136837032889
0.98,0.0002556728321230445,-0.15038161698468788,-9.819361366075345
0.99,-0.011729356668757346,0.028558970310960437,-9.7583671241689
1.0,-0.07076853710252072,0.012182861185135722,-9.737307988143906
1.01,-0.021032266138267953,-0.05451042033997149,-9.833998232135611
1.02,-0.017135725826338474,-0.0492769800360465,-9.846078454117002
1.03,-0.04011386346108095,-0.048487185981733724,-9.803057198378456
1.04,-0.008064285583300457,0.0055267658736970066,-9.768425056653417
1.05,0.020202542840726923,-0.03131576380915035,-9.770095447566922
1.06,0.09430929506052652,0.024703195948775986,-9.881208380009381
1.07,0.008728890641591948,-0.14273133314521955,-9.714419696646834
1.08,0.01287751953613822,-0.04284259325638997,-9.842058246469843
1.09,-0.003722295788308361,-0.05630269804555252,-9.823253249844429
1.1,-0.09593856076495208,-0.01281703391862461,-9.85513271799939
1.11,-0.001325693772460844,-0.02690238792450693,-9.675083558203147
1.12,0.003011510497051322,0.03989218899478833,-9.797896466485602
1.1300000000000001,0.12316210562426431,-0.09296683858300288,-9.852548754034078
1.1400000000000001,-0.009618048239056126,0.0022745738165376,-9.766803822501878
1.1500000000000001,0.015077367116680625,0.027916821160585276,-9.7715432110345
1.16,-0.0017355884852621657,0.09283237182809774,-9.819386351178995
1.17,-0.05843390188097661,-0.02408829855467376,-9.767969664360832
1.18,0.05714114072575103,0.016222930217625855,-9.851264598041544
1.19,0.03759665163433871,-0.09019313962811826,-9.834645913747464
1.2,0.03955159735215235,-0.11959781021565119,-9.910510832728304
1.21,-0.045469372739736946,0.042238718789085,-9.876197554210979
1.22,0.07013971554680497,-0.0002780146824035283,-9.719618459716466
1.23,-0.07009255313961404,0.05892563448992114,-9.727928568613885
1.24,0.029342854690013517,-0.06867014444848746,-9.806710567567553
1.25,0.10952278129049893,0.02599510697643763,-9.726853427640508
1.26,-0.04952681625653442,0.09344089202719266,-9.818003724330415
1.27,-0.028314886480138596,0.020985280417863295,-9.822170515128397
1.28,0.004982568254382061,0.01382907527955244,-9.807174467576722
1.29,-0.02517378270580996,0.0004278040412174916,-9.816246079766179
1.3,-0.07753317155330663,-0.07854407285629561,-9.82075981617801
1.31,0.0034281487403013664,0.06777864678551741,-9.752830094642523
1.32,-0.053115185686305244,-0.03054288199025329,-9.80249321730219
1.33,0.02367962153175908,0.02522416281915085,-9.77437591177831
1.34,-0.04597121171169016,-0.07815171532856269,-9.758430973736134
1.35,0.07749672025087698,-0.05897298322538902,-9.790590710217264
1.36,-0.03916266461681186,0.07175436996111177,-9.858513566295413
1.37,-0.01610307581028378,-0.017365114447892148,-9.877643294448202
1.3800000000000001,0.04067586086848349,0.07266377380212723,-9.802560968259636
1.3900000000000001,-0.061543215821697764,-0.003911532952925891,-9.818562815241247
1.4000000000000001,0.011372996730206471,-0.09209488864789288,-9.805630428553995
1.41,0.06535713771412141,0.044603379986586034,-9.81080270196243
1.42,-0.08037416172806139,-0.029494615887780393,-9.680821316991672
1.43,0.009231692926615211,0.03493444067585218,-9.876511312782068
1.44,0.012994139712421178,0.001260543377004106,-9.909497313491057
1.45,0.03909114358886552,-0.07715591139714352,-9.79338115832402
1.46,-0.0618475355439041,0.008214738268528454,-9.82882112772941
1.47,-0.06602283065421381,0.10981115710763996,-9.794196606513504
1.48,0.026097078280844885,0.02464932292572296,-9.7808058488858
1.49,0.014849233661659304,-0.0028758876502731567,-9.745794765241056
1.5,0.012524642517293828,0.05376717009784489,-9.885361291019198
1.51,0.017322410474848785,0.010533423260155541,-9.837835894892859
1.52,-0.034001236078924545,0.010476711513139718,-9.788561937055963
1.53,0.011612684858050178,-0.05458125860795513,-9.77147682021564
1.54,0.014653623664934064,0.011692401289479919,-9.700327522485582
1.55,-0.03571757090131839,0.051772170820847244,-9.762214801444307
1.56,0.09328872555723783,-0.041803107605001236,-9.812839429794314
1.57,0.023691646045589376,0.07122479106234739,-9.854521787647133
1.58,-0.059565174860132436,-0.004585301207256299,-9.838214492635952
1.59,0.032827680431691486,-0.04438847557692704,-9.839635141147856
1.6,-0.04873408351136607,0.04988160384601223,-9.777238318574312
1.61,0.039354230187122606,-0.014339711786913465,-9.797150127720709
1.62,0.05792977895037021,0.0379757443743054,-9.876182478542109
1.6300000000000001,-0.041034115917585524,-0.014587931612926859,-9.831795073454522
1.6400000000000001,0.04816880646221609,-0.002991307176495185,-9.76612262232743
1.6500000000000001,0.020639046346824917,0.02467801021671458,-9.792416882251297
1.6600000000000001,0.0411030079997245,0.014544852879500296,-9.781567769199363
1.67,0.09483964913269738,-0.09977658902258693,-9.790853914497138
1.68,-0.012269405800143525,-0.05606218700471959,-9.728678463269558
1.69,-0.037686808217874485,0.046470499239540775,-9.798197846808781
1.7,-0.04447572148127617,-0.006606829445077363,-9.829301139893536
1.71,-0.04079051424827192,-0.02618656513857109,-9.855787752056678
1.72,-0.0038550854707052103,-0.06792870076287372,-9.797519527089515
1.73,0.017057598740832194,-0.05398681606379242,-9.932035200738754
1.74,0.013834539966500954,-0.10108993199809738,-9.819214450091636
1.75,0.04135916245180119,-0.005064035935076644,-9.820291992996067
1.76,0.000650094593895351,-0.029921879029052346,-9.878223542680864
1.77,0.07267670385786584,-0.04832939454926576,-9.8564132919328
1.78,-0.013232841661897804,-0.003406171258397655,-9.769517123492589
1.79,0.13600845832948094,0.018198531542636908,-9.798464412546252
1.8,0.03128336738825031,0.10465989661049724,-9.804910583314633
1.81,-0.04285787782081413,-0.07559417097816068,-9.7946826233034
1.82,-0.053544624903055615,0.057969052165026104,-9.805368620602554
1.83,0.024123620762159265,0.0486550780507536,-9.747856871857085
1.84,-0.011173139266292546,-0.03895463696883503,-9.803828540914818
1.85,0.0357000247046046,0.010161797729301552,-9.882910655690939
1.86,0.023661881228677243,-0.022881662466880764,-9.72849350175628
1.87,-0.0036414456328436387,0.009284429020936947,-9.791482986633559
1.8800000000000001,-0.04233968590342025,0.07545655067022754,-9.839462686539754
1.8900000000000001,-0.07574236123429323,0.03028031163156565,-9.872670085914752
1.9000000000000001,-0.022325747603351057,0.025430418661672102,-9.790204288952099
1.9100000000000001,0.04281993971617362,-0.02151546599773212,-9.815858600248719
1.92,0.010704687206510199,-0.07420283324621677,-9.73129266069838
1.93,-0.062286938935599404,-0.010423410527020395,-9.827295364033342
1.94,0.0086590462925591,0.06033040774319576,-9.851869039484123
1.95,0.01926586898644184,-0.07635839282948238,-9.765210189088204
1.96,-0.044192871810056655,-0.052754468408834757,-9.76373590536416
1.97,0.007686255297276396,0.006313386811703409,-9.80156743161949
1.98,0.002910435922299995,-0.04923273924236313,-9.776182147616256
1.99,-0.05714851489153116,-0.03962617235576063,-9.811884356037112
2.0,0.017889368017414167,-0.021179929086408856,-9.798306744949539
2.0100000000000002,0.02803922631841172,-0.06828087020950747,-9.751750455871804
2.02,0.05415256215876385,-0.04870609231081842,-9.778734083298925
2.0300000000000002,0.05269010260174515,0.03517139583936544,-9.81846372191663
2.04,-0.06888346839785456,-0.0653684891115482,-9.742381872703692
2.05,-0.04689125199575614,-0.07989360672474188,-9.928242768639576
2.06,0.02575176336043299,-0.03150124897669472,-9.707396334428903
2.07,0.025689297545610442,0.03659777512549229,-9.895297954744537
2.08,0.0257523843153024,-0.009846090399844479,-9.841354641238615
2.09,0.19263657453273608,-0.02322905390578092,-9.812045876759754
2.1,0.02854452553465835,0.0022179398757803527,-9.817324033536408
2.11,0.05677828200902995,-0.08728537164298261,-9.759679447998673
2.12,0.04770008817466012,0.024735282688751623,-9.862891830930511
2.13,0.0325695625652899,0.019171751570182208,-9.796961659125847
2.14,-0.015763462232017283,-0.020465423704786063,-9.838910604910987
2.15,0.03794846102466337,0.05029622558982083,-9.79524295103313
2.16,-0.038641260726878596,-0.05637480494765194,-9.813238612989894
2.17,-0.011840930337000444,0.056395449662678454,-9.805353217365852
2.18,-0.024268177391455176,0.007724683279762556,-9.837496241623217
2.19,0.004093706969316128,-0.01682762949390867,-9.835503197504805
2.2,0.11573292833367543,-0.0009936817684155785,-9.79563637429863
2.21,-0.09336325962958741,-0.0053632382905470875,-9.762814224712198
2.22,0.03431300951872567,0.06101414482088585,-9.839913966709894
2.23,-0.08063579355948258,-0.05383395637355068,-9.853438377228645
2.24,-0.023596593289471675,-0.03812596195732992,-9.779326991716408
2.25,0.05444752984836831,0.05181514460362399,-9.811625194652885
2.2600000000000002,0.003214000954773139,-0.029776746759192965,-9.768475093300703
2.27,-0.05388723889646531,0.045026653866579586,-9.855289860668558
2.2800000000000002,-0.035765185462998415,0.08497179915043548,-9.898971946271171
2.29,0.033979887446733796,-0.020089751347081686,-9.836650204091317
2.3000000000000003,-0.036518331585856836,0.03406811632876527,-9.848317630463251
2.31,0.010822929479098744,-0.05768461406699293,-9.813939420004015
2.32,0.0022785919951906894,0.03773666490339046,-9.84184226071352
2.33,-0.03258001738029086,0.009971199299338356,-9.772949152433178
2.34,0.1071972044662663,0.023651914108010763,-9.824407513121127
2.35,0.03169595111590056,-0.032278603601769755,-9.802476275061306
2.36,-0.10125712933288036,-0.08305417077835864,-9.802118272077953
2.37,0.009322715738471382,0.02516260323747524,-9.800252245379392
2.38,-0.0330893232384194,-0.10317015762397273,-9.811206455522749
2.39,0.0426216667398112,-0.015867524612126743,-9.784469965479484
2.4,-0.039626036921635036,0.04705909332099849,-9.84978275669129
2.41,-0.005736822073344951,0.009594886793651804,-9.740029103667306
2.42,0.025249363949022857,0.09741713223949067,-9.821826869168428
2.43,0.043287759708506075,0.051255457629088674,-9.875577456894934
2.44,-0.060014820352788815,-0.03269491941627883,-9.800596332150413
2.45,-0.01672506179204742,0.0013656689925719335,-9.852559024122375
2.46,-0.02374726555804781,-0.0023685351272217975,-9.776733273274557
2.47,-0.0326664616286856,-0.07910883816730636,-9.699519721197882
2.48,0.08827271201405484,-0.04701994582421767,-9.849328604577893
2.49,0.020249085548047777,-0.028038045348993013,-9.7933813833388
2.5,-0.06304419771675226,-0.10181102514279683,-9.897775279435232
2.5100000000000002,0.045893097352738804,0.002374673412582148,-9.787304738527933
2.52,0.10610780985063167,-0.012453592232652036,-9.854285689989984
2.5300000000000002,0.05162326302755735,-0.08364469506557871,-9.841241730921725
2.54,-0.07596849829770068,0.020210643263866606,-9.865064324491993
2.5500000000000003,-0.02421170364331257,0.035793637234547974,-9.773392438697265
2.56,0.06334555745933114,0.011351723943244445,-9.759634782126337
2.57,-0.03538347328093904,-0.01620340876044851,-9.808830739267075
2.58,0.022190971407311424,0.029572107587592746,-9.853221335266786
2.59,0.03873170267146684,0.034011018023834556,-9.730523848194807
2.6,-0.04634652357890415,0.015370178485984421,-9.847520506387733
2.61,-0.002976267803090004,-0.04123061252173805,-9.918101614996372
2.62,-0.16206336700345364,0.013830038275559035,-9.787080549502146
2.63,-0.051219382066714496,0.05977403254127395,-9.865238733682077
2.64,-0.012628407569658016,-0.029831452930586512,-9.760569560325042
2.65,-0.062389159098242476,0.10489696695662157,-9.82905688483367
2.66,0.08162056519658177,-0.026281546699269222,-9.779814337972791
2.67,-0.07150706889803164,0.001620350667006811,-9.739924982672392
2.68,-0.02200222433484919,-0.03362427980031681,-9.870442943231037
2.69,0.0065370288643045674,0.011163541796013044,-9.838296856544622
2.7,0.07206366445330578,-0.08711108463176376,-9.813783553632854
2.71,-0.07179310755897197,-0.027302089940836063,-9.733122434048283
2.72,0.058158187607747984,-0.05460606001742836,-9.842919135897024
2.73,0.0005116530509793525,0.006766917394614546,-9.839725184797452
2.74,-0.04907543255239755,0.04972236877544537,-9.78609297122221
2.75,0.02310517371316354,0.03230030935572758,-9.838861436285528
2.7600000000000002,0.009952984778673502,-0.11858296804294462,-9.80237370585512
2.77,-0.030010843857939735,0.10210348264639402,-9.887576871048406
2.7800000000000002,0.003490104249500946,0.014763997031043419,-9.69928350287217
2.79,-0.01926567984308801,-0.03882495702465002,-9.877385461515471
2.8000000000000003,0.005675867262562403,0.007856395949547042,-9.82608763519951
2.81,0.03310653372605234,0.008809491125134619,-9.811624051792105
2.82,0.07930084080726761,-0.033342435847578185,-9.71436559328216
2.83,-0.06189077494134246,0.009895833367103776,-9.876242289046637
2.84,0.10665166873281334,-0.030373614381015365,-9.710814793226064
2.85,-0.0976043899761251,-0.02021809963450114,-9.7721411589449
2.86,-0.007589254751779167,-0.03431395678775422,-9.789145233778838
2.87,0.029415860324228826,-0.07163356448698265,-9.859231684350899
2.88,0.014049593386751633,0.007291823510769195,-9.781442937898097
2.89,-0.03113497599102969,0.029264971825816905,-9.84617433112099
2.9,-0.010406112517863761,0.025744179803818615,-9.74666693734008
2.91,-0.024650046732941643,0.04099626263176172,-9.858553101455387
2.92,-0.029468237847210577,0.01621701050074341,-9.815657924722805
2.93,0.042480104851051234,-0.02663627491084518,-9.837763654400659
2.94,0.017850774298252367,0.04198319322155944,-9.85937614812135
2.95,-0.03464547976303271,-0.06787587699209675,-9.772934009154605
2.96,0.044979993771662535,-0.04503356912562401,-9.78322706262952
2.97,0.015364976043830468,-0.04821000357116224,-9.749549490054951
2.98,0.040643105941948005,0.054002802956965516,-9.898993755410409
2.99,0.03148144209618061,0.04713942570700378,-9.756791464882948
3.0,-0.041449750546103614,0.024365261852249742,-9.684727554732156
3.0100000000000002,-0.02800905200984848,0.053596493260589864,-9.832582054458848
3.02,0.037364680256163095,-0.043964139120599405,-9.715242569394553
3.0300000000000002,0.030518513271673244,0.01742975599304902,-9.823158063602992
3.04,-0.0010450796982074066,-0.006258721419158212,-9.878620486878066
3.0500000000000003,0.0058663691654391,0.042344105194245696,-9.82528162212034
3.06,0.06388324478942124,-0.0057612116276098795,-9.757589801616236
3.0700000000000003,-0.029578569441791498,-0.01924714442050406,-9.851908824116578
3.08,0.027354869058501898,0.0270454259280495,-9.840016932950325
3.09,-0.010109632621694703,0.043808458359561646,-9.780323028385341
3.1,-0.010884060161361016,-0.03341725974234008,-9.809846994163072
3.11,0.05493884259935951,-0.0030537835676188053,-9.780768852375664
3.12,0.041270817449401496,-0.05292203168208264,-9.798108522962083
3.13,0.04067548180003193,-0.12490305087464698,-9.786018734022422
3.14,0.06527394035771646,0.01002298157068645,-9.831615059290478
3.15,0.0010501920816379524,0.0304452678127316,-9.798413452898481
3.16,0.034097648564748194,0.013103340454336277,-9.856368650284796
3.17,-0.015513337829672803,-0.09747808588771836,-9.74557831887483
3.18,0.016208317624422108,-0.01754247150382373,-9.841713735840866
3.19,-0.006507152718384229,-0.11091738800255407,-9.75355762562253
3.2,0.00484979824963591,0.06848505538270924,-9.821680348049144
3.21,0.029757851271845683,-0.05430272910590431,-9.799900049462135
3.22,-0.04091103416167363,0.06277018047299482,-9.834748227544535
3.23,0.10461936378427301,0.047293482184207286,-9.860799771558401
3.24,-0.0503008690749851,-0.04502951762680309,-9.897238019380266
3.25,-0.06070943063938661,-0.05663924756338726,-9.862766207929624
3.2600000000000002,0.05790554367500339,0.017518510819316914,-9.826195442660797
3.27,0.039583134698146796,-0.042216201859153556,-9.799406041058557
3.2800000000000002,0.031205990852607758,0.005124232107910377,-9.759481034335836
3.29,0.031417275463213996,-0.02414137954034592,-9.832287872989843
3.3000000000000003,-0.0006123386423457312,-0.08905792072328167,-9.85409803821336
3.31,-0.04486271857429158,-0.11152340095622296,-9.882135739300136
3.3200000000000003,0.003790227909686317,0.011334212424729859,-9.785996819104795
3.33,-0.03385808557560559,-0.02807788731653127,-9.740840274233534
3.34,0.04875598667088756,-0.027654490845706616,-9.746683486602185
3.35,-0.0073528690751069326,0.034793191954689266,-9.774503362592638
3.36,-0.04127485983962558,0.05867211383162224,-9.778072834136621
3.37,-0.016069292082649674,-0.01362723606809046,-9.725118811014534
3.38,0.020646572713781217,-0.017029935345493075,-9.79339592692916
3.39,-0.028186227640198736,0.025007151655694188,-9.777693516198791
3.4,-0.04111101977832157,-0.06784677848497876,-9.826039193092601
3.41,0.012184360574595616,0.011157652737384852,-9.878102168542739
3.42,0.012248328555436139,0.027594298591107704,-9.84419244502498
3.43,-0.02534715876855649,0.034011510420881456,-9.810457951926733
3.44,-0.02355191528091614,-0.09683763512512325,-9.806960731374936
3.45,0.011602496867881815,-0.038067763490447035,-9.71368570725723
3.46,-0.0724042170748662,-0.043913162641173335,-9.805936141620448
3.47,-0.07037318871882776,0.004994347720460649,-9.751057827798718
3.48,-0.0359222110626218,0.0240372289883992,-9.831753862078816
3.49,-0.010672357585592363,0.07483552037229907,-9.825583794288262
3.5,0.01554537827990023,-0.024748274018403654,-9.876450381861172
3.5100000000000002,0.0737678108474776,-0.024878624915460695,-9.847116400643829
3.52,0.042882981160100975,0.057483600943937355,-9.783650930431813
3.5300000000000002,-0.007996926498171356,0.014828846926515255,-9.809621990980293
3.54,-0.0009508103951344415,0.06338257555939869,-9.76285306900514
3.5500000000000003,-0.050126468231890445,0.014436400150491815,-9.800937302582748
3.56,-0.0009256567996194966,-0.057855830935663544,-9.827622686581888
3.5700000000000003,-0.014432931946006916,-0.06665641773889033,-9.702585156810652
3.58,0.016135928016904475,-0.07757561245294646,-9.814695178435652
3.59,-0.04136154717761615,0.03310259173792366,-9.751849951514735
3.6,0.025967325712058616,0.059429841154350405,-9.830060460327234
3.61,0.0766369456501289,0.09246810706931906,-9.774520026030823
3.62,-0.00543800742284288,0.04215526661616201,-9.763599217042415
3.63,0.020085586104947074,0.058141928876749294,-9.799575401471222
3.64,0.03450719958555563,-0.029000816632684237,-9.92772414613483
3.65,-0.020061023594291814,-0.05782079083719284,-9.809087376957194
3.66,0.011204624090520839,0.042503966620877666,-9.748476997612002
3.67,0.0006296200390897431,0.020884037611970035,-9.783625958348614
3.68,0.0048838049274415865,0.0053722187170446275,-9.787708056238538
3.69,-0.03865048919277333,0.019368574031649495,-9.896112846697877
3.7,0.0012255087129471357,0.016159274122910294,-9.846022753533754
3.71,0.024899914562272488,0.06419084299267806,-9.789432118442429
3.72,0.07255718038975209,0.06474927924084779,-9.789480836160656
3.73,0.047963541304260345,0.027211017617017354,-9.749266660993355
3.74,0.10765912287557783,0.04229014362814641,-9.817243337757306
3.75,-0.03836737814440248,0.025703127621238792,-9.789708795666309
3.7600000000000002,0.04361603183603391,-0.023058486601730946,-9.809181287903435
3.77,0.009167100286917588,0.037828233745657004,-9.859347136825079
3.7800000000000002,0.10949014666088362,-0.06972475344296308,-9.922789566554737
3.79,-0.040414914267757576,0.05269457761479416,-9.788449515393497
3.8000000000000003,-0.04198609210903881,-0.059726146988301754,-9.80130263957936
3.81,-0.02996963227220111,0.014290164339736648,-9.840908752105008
3.8200000000000003,-0.10619478621549035,-0.04225769792130795,-9.890958652825793
3.83,-0.026287751084038052,0.02766944915372134,-9.778513024279563
3.84,-0.037956633077684904,-0.001696261296395444,-9.823296003709778
3.85,0.007519689323810382,-0.07973779790816662,-9.782156263881593
3.86,0.017087798788857973,0.021034981550923943,-9.716797573479413
3.87,0.09380854196079431,-0.02889603884163553,-9.917071544015986
3.88,0.04752119190930251,0.04405733604066846,-9.844980040435118
3.89,-0.028845182783120156,6.628443672036147e-05,-9.820468780665596
3.9,-0.0449207335674179,0.01977104926940191,-9.737258691292668
3.91,0.02459595857532529,-0.0478784477507606,-9.891820150960324
3.92,-0.0660116603510321,-0.029466611571368095,-9.713206948715971
3.93,0.09157293829271769,-0.022931931805054227,-9.803207204921685
3.94,0.05897200603606435,0.04283512401212779,-9.814800033086694
3.95,-0.02345878260523524,0.08386885439027447,-9.819902988160946
3.96,-0.08565672645454388,-0.04025858758714382,-9.831813151609001
3.97,0.06769361870827065,0.05384240723288402,-9.757594162036543
3.98,-0.005726992262630895,-0.10848387088628511,-9.863426037704123
3.99,0.06189081559867309,-0.059709470054614466,-9.792729290917809
4.0,-0.07972138293971837,-0.047938922809338744,-9.829209083285349
4.01,-0.029968751147688644,-0.06762543447203612,-9.848106672425706
4.0200000000000005,0.0002621849859091583,-0.07917941948937901,-9.680701241215806
4.03,0.002349029688237103,0.020649945606889878,-9.789047463262328
4.04,-0.022503273573962184,-0.01070338488639307,-9.779336722766944
4.05,0.031142496617374938,0.018970269880255488,-9.753111160966567
4.0600000000000005,-0.05338102146912972,0.034523634306075655,-9.881067497265928
4.07,-0.007118974251064675,0.013280849658626673,-9.7223854045439
4.08,0.0060147815855949435,0.032888158807518685,-9.935447858924753
4.09,0.025721941702937453,-0.0034766143121134695,-9.848438320501927
4.1,0.03558074390444449,-0.059349669415287236,-9.832951583658945
4.11,-0.05623210459189346,0.05289070904103981,-9.780913831751475
4.12,-0.07670570853678112,-0.02945560663905635,-9.799064086692926
4.13,0.06388384109492545,-0.0467798149381213,-9.81834073703492
4.14,0.016615700598979582,-0.008895893790219909,-9.810599867231387
4.15,-0.03742432682782768,-0.045640545964825655,-9.858901151176129
4.16,0.07755759877612615,-0.020871519099471613,-9.884861619724209
4.17,0.005783731714642934,0.017202696078173325,-9.773674418883198
4.18,0.058964859203191326,0.017417086962306344,-9.775314694373192
4.19,0.0033759240705054476,-0.04489150332128147,-9.730775281242147
4.2,0.10303739624409936,-0.02438526864743723,-9.84950085484076
4.21,0.08776704212216023,0.05371665023851219,-9.775359239484954
4.22,-0.012448207423953675,0.024820005886697055,-9.824185336418237
4.23,0.048578547547717774,0.10375325196742709,-9.750476250740327
4.24,0.03226879747925738,0.059006408687076385,-9.758901861166093
4.25,0.06843157787661744,0.057214653427996955,-9.799439530038777
4.26,-0.048246173029005225,-0.0693934275227901,-9.8269765078333
4.2700000000000005,0.03430257299992197,0.03819301758167113,-9.761953391069587
4.28,0.052921224342479395,-0.0026553400848455325,-9.777654773837172
4.29,-0.08793697432115571,-0.02754909017691248,-9.84422202010431
4.3,-0.05916292563328876,0.008400767026626425,-9.876389933673972
4.3100000000000005,-0.10196160888800504,0.04726057673057418,-9.824426645034091
4.32,-0.013470341722227889,0.02504157955021058,-9.73422930923259
4.33,0.03587711278979812,-0.043923690067103005,-9.752675642063348
4.34,0.07511785260480142,0.037122945679631016,-9.86561637348353
4.3500000000000005,0.0037047390209887596,-0.0318793771037982,-9.868387870794997
4.36,0.0814307772785646,0.01083415594821431,-9.746265807516027
4.37,-0.06900507291074458,-0.015167503373856712,-9.866781795237891
4.38,-0.08516912196775774,-0.010943312586781287,-9.7845352338179
4.39,-0.002777384944830939,0.03831214875202548,-9.840803560766817
4.4,0.019203272446965364,-0.0520096859907949,-9.729147753773915
4.41,-0.0016347374047046557,0.09725975371384665,-9.848521239956895
4.42,-0.10337210500199384,-0.09105430346472482,-9.752831923489708
4.43,-0.00445600197563942,-0.029883384162742856,-9.800757067296983
4.44,-0.06522347502524266,0.01851059449708705,-9.797390257288287
4.45,0.03348362744150193,0.029215708321765496,-9.90851542906757
4.46,0.018329912304842415,-0.005023786028585258,-9.920145667660286
4.47,-0.046993989316367765,-0.0028695351500771203,-9.821028297013367
4.48,-0.02569334586683468,0.02052750426638083,-9.79765469682917
4.49,-0.05296067609444758,-0.011553473872884017,-9.866259891386887
4.5,-0.003133954863658594,0.0696590628967453,-9.864434670523817
4.51,0.04775711602506191,0.041967455711580115,-9.781926368508694
4.5200000000000005,-0.04928630231677719,0.04364121755028173,-9.781857275977144
4.53,0.025202325775892223,-0.04830783616852086,-9.816887053019396
4.54,-0.026512880918622042,-0.003969421220285144,-9.770989913940697
4.55,-0.03964364161311721,-0.015023297436035185,-9.868710114786008
4.5600000000000005,-0.005351517997727892,-0.05028006878447329,-9.827796745854348
4.57,-0.051762116120968704,0.018008209197288346,-9.727606119710817
4.58,-0.027682465267359103,-0.026882287888990827,-9.80658389350301
4.59,-0.059893894629442425,0.032770191492511855,-9.80368437427065
4.6000000000000005,0.09823625664581948,-0.05350957814471659,-9.694702670701613
4.61,0.0017631775985864307,0.08595203064209106,-9.879967108292439
4.62,-0.03498627539962928,-0.04481663292960309,-9.770178481667894
4.63,0.010698995536711102,0.010965116860021804,-9.726800686009595
4.64,-0.0056164024845414915,0.03959296551940338,-9.826242896324928
4.65,-0.01104847997666115,-0.02853202151000564,-9.767018460657258
4.66,0.030708335002171263,0.04262343217164753,-9.859100974860546
4.67,0.03787538550236526,-0.06145917989002081,-9.844336619778367
4.68,-0.026525057380526375,0.07260588495912802,-9.79075167919762
4.69,-0.028790912032234002,0.0007074632482879147,-9.77007166634447
4.7,-0.013752584857582201,-0.02982057039844398,-9.753953174379689
4.71,-0.11509605823677925,-0.014959088621371725,-9.731518570653027
4.72,-0.07575955310992762,0.04044596346963597,-9.813372327927759
4.73,0.06834371337222624,-0.029222764592521912,-9.750319412241371
4.74,0.08224838567506419,-0.03746788447113888,-9.827115242172457
4.75,-0.012451801977818916,-0.011076829879186909,-9.764895434420588
4.76,0.028827848152788323,-0.058848105638498405,-9.799625560107392
4.7700000000000005,0.015562507727176806,0.09102719539709078,-9.787716104645904
4.78,0.15394404042276189,-0.028319729560736164,-9.788824606298899
4.79,0.05597874557172884,0.04158083930902018,-9.89023525048989
4.8,-0.0063958795740383274,0.01047350418238863,-9.86620609294304
4.8100000000000005,-0.04777702203002129,-0.04922670252409841,-9.804872928009125
4.82,-0.08032231601287863,-0.0002977354606364692,-9.894363953982058
4.83,0.010173181793361156,0.0392001389655374,-9.768439444840013
4.84,-0.03781753726421517,-0.009413066754315328,-9.766422201685593
4.8500000000000005,-0.07111268547988371,0.0596556472925514,-9.79364147235611
4.86,-0.03232864421212633,0.051075769639093195,-9.866056700637897
4.87,-0.05407740018071975,0.04594574273291647,-9.740993053056576
4.88,0.08435708175362824,-0.022982838613649848,-9.708139468014082
4.89,0.044081987847472526,-0.05399212238907435,-9.802646158627702
4.9,-0.00039863206583086864,-0.030679380268139725,-9.784473231077438
4.91,0.07399720694450129,0.009812047033336024,-9.799913067260198
4.92,0.003868415382380915,0.027289335676617777,-9.78348154055006
4.93,-0.043064210066413186,-0.10857857023802238,-9.81597793783132
4.94,0.07615620386348287,-0.0004056600805875145,-9.811728211992191
4.95,0.026945502184232934,0.007904461266159221,-9.764714119975132
4.96,-0.051862307716322824,-0.013877212815777579,-9.692718791905179
4.97,-0.00951693390418041,0.06456369195079395,-9.880003561720088
4.98,-0.043780912669237865,0.021089003712543547,-9.815190624220149
4.99,-0.0691399865482168,0.06550959540404486,-9.869023024261605
5.0,1.6847025650760838,-0.010798026017511612,-9.592614950137682
5.01,1.7469138041938719,0.010419172140564877,-9.699314879807732
5.02,1.5945292376924372,0.008862697684728138,-9.73965029313572
5.03,1.7055858288264052,-0.04372099598548099,-9.632993968284
5.04,1.65784984333947,-0.20030483619386225,-9.574951952289855
5.05,1.6789349105574234,-0.19474861029814658,-9.626103287184462
5.06,1.6865450447377919,-0.23566297922682328,-9.646010825216223
5.07,1.6858028681925186,-0.23025277413187872,-9.632613485630634
5.08,1.7442300107577733,-0.2566773374837493,-9.579001019021971
5.09,1.7130215567862195,-0.3691858652774171,-9.68997870228773
5.1,1.7808204024840775,-0.3600601756443436,-9.648240430304087
5.11,1.7774772756121333,-0.5006219497138766,-9.661516076806281
5.12,1.7806962770746053,-0.3636623926064888,-9.693363019975424
5.13,1.7598826314233331,-0.49747096650292894,-9.647331951318634
5.14,1.78900177940069,-0.5051082026119704,-9.571326397798206
5.15,1.8681515956380286,-0.559387554091232,-9.59403804625846
5.16,1.8679315010767936,-0.5225598807640932,-9.58566539707645
5.17,1.8064731688561997,-0.7576433025991989,-9.605927631745818
5.18,1.8727442821472684,-0.6524537652596261,-9.582314113679365
5.19,1.9177349707410332,-0.6927160263659292,-9.643597812781914
5.2,1.8090442768816375,-0.7458533567848111,-9.613991610854498
5.21,1.9319922235594174,-0.6725493134042548,-9.583724302729598
5.22,1.8839632148224934,-0.8388569273095814,-9.574118469089484
5.23,1.9578548112681378,-0.7914692361147119,-9.566516761541525
5.24,1.9033524529585377,-0.8477518503637086,-9.583837773677995
5.25,1.8634216694466608,-0.8379289145021027,-9.590050838886055
5.26,1.8843986211277204,-0.9697377607624745,-9.40741443132152
5.27,1.9802493390803169,-1.0083313340086033,-9.513952511600944
5.28,2.002859722315143,-0.95211325216756,-9.53248984220251
5.29,1.9566452060251565,-1.0208119513985394,-9.558530372400416
5.3,2.045736813895414,-1.154411711267458,-9.563021962526683
5.31,1.9426358354441284,-1.1391406391504606,-9.540461439709835
5.32,2.0342707716979183,-1.1277886898335174,-9.5126106660766
5.33,1.9888449329822442,-1.1400721203076525,-9.61447590837396
5.34,2.02858276123429,-1.2506926459671843,-9.591997994668457
5.35,2.0752809514575192,-1.3971311794528634,-9.53832043563248
5.36,2.0415842150619214,-1.2598591973090427,-9.488941640313122
5.37,2.077028173526224,-1.3815513167423252,-9.503960157427665
5.38,2.1581786496550577,-1.4558283498454487,-9.410665035814727
5.39,2.090584255546937,-1.5309133031518258,-9.551143379498884
5.4,2.1727348674150178,-1.3828413117402079,-9.506922258909874
5.41,2.0859426976771576,-1.4512588771596162,-9.38556202135854
5.42,2.180352187826522,-1.503026321696223,-9.447103637220682
5.43,2.2373303037838586,-1.4562487214664805,-9.401393054467682
5.44,2.0530152935065455,-1.5276911674450908,-9.334932233154431
5.45,2.1480539513514336,-1.512499242829659,-9.463929264079837
5.46,2.2280088651214043,-1.6966056151668698,-9.425835556583575
5.47,2.200214683565911,-1.662247110047201,-9.426009599996837
5.48,2.240090891821692,-1.774800528860423,-9.501525241631875
5.49,2.20245573826166,-1.7387722211705094,-9.410613008784862
5.5,2.248060444823732,-1.7729635402651671,-9.342229213481938
5.51,2.2469774154599995,-1.7623215588302266,-9.350334929935574
5.52,2.3241348728073175,-1.8243818578437119,-9.33738663175413
5.53,2.2894052831575546,-1.8283843087845038,-9.377988306537429
5.54,2.3044566334660725,-1.8571625765855333,-9.382786871411565
5.55,2.2778285101258104,-1.8172518886019648,-9.277186879075412
5.5600000000000005,2.2848413158657124,-1.9733092509902497,-9.35608310523081
5.57,2.298346210021138,-2.0370225574006877,-9.306982109439652
5.58,2.3504022569861225,-2.009973723119699,-9.303891279592932
5.59,2.3202888100694623,-2.0945764503629523,-9.22924827862219
5.6,2.3664378319310972,-2.0124256228686823,-9.243945429625857
5.61,2.466282672939166,-2.1326210636800327,-9.347368201216613
5.62,2.4165847205234874,-2.1785494072426252,-9.331980971456366
5.63,2.367195290259057,-2.205519384820778,-9.233566214097223
5.64,2.4539770956736455,-2.1775869941149173,-9.255548869613989
5.65,2.3838843380716157,-2.2528194291631936,-9.264824302881584
5.66,2.312705186121002,-2.3083082933203434,-9.180933056066495
5.67,2.3744818282947557,-2.2241176136548435,-9.211906805646137
5.68,2.3415725306189046,-2.3812200889720754,-9.20814040705369
5.69,2.4277135154923815,-2.367524574106875,-9.161175123626972
5.7,2.4563380814579343,-2.367442525915012,-9.208246673639
5.71,2.5493177415389514,-2.512242018981841,-9.1003129537236
5.72,2.4918715307622454,-2.4371409602457197,-9.207313606326379
5.73,2.4745498278588873,-2.54424821863075,-9.124163379216226
5.74,2.5369050662678982,-2.480551527052484,-9.07434473495301
5.75,2.394758031211148,-2.599878901875243,-9.203857293801624
5.76,2.5269254476724687,-2.547020329330281,-9.141046688817601
5.77,2.563467654576945,-2.556135210495101,-9.055589918146334
5.78,2.4607243493228372,-2.597977700729039,-9.043593052487894
5.79,2.601520062962994,-2.657959883473132,-9.098721381618812
5.8,2.57088515491995,-2.711419441229057,-9.115509510743266
5.8100000000000005,2.5427730304748937,-2.757855522354832,-9.019548262690662
5.82,2.6047025735504605,-2.6845134299210853,-8.996678157413022
5.83,2.696072985465272,-2.821920036333983,-9.102542524223962
5.84,2.6010551729502787,-2.867527216520941,-9.092903700081834
5.85,2.6137449106959303,-2.8109816851921123,-9.009790498218376
5.86,2.5876862106463285,-2.912479845909342,-8.977879012350721
5.87,2.5774306151752717,-2.9484448004107957,-9.012544355772368
5.88,2.6706562582312423,-3.0012353138086114,-8.95182196783054
5.89,2.5954998187631833,-2.9811580506798907,-9.009442905340313
5.9,2.6509946278604684,-2.9889488962491955,-9.067775593656899
5.91,2.632593368491336,-3.000301436832137,-8.97129799660575
5.92,2.689432632652141,-2.992375062366377,-8.934962327628856
5.93,2.6911214808955934,-3.0409205022204624,-8.939897663440757
5.94,2.7352173000750684,-3.1039739227044416,-8.971980076937218
5.95,2.6666884635524832,-3.131344133137837,-8.99274091110581
5.96,2.6874914324046517,-3.1227688901527255,-8.91553753660966
5.97,2.6607896669325553,-3.111328316409754,-8.832792815222177
5.98,2.696202505180832,-3.195158109697889,-8.802677902634473
5.99,2.7459180154348473,-3.2512835965397744,-8.793885731582257
6.0,2.773484617761044,-3.3036591492776712,-8.881823752757912
6.01,2.6980553580130495,-3.3522998084883913,-8.886445511417126
6.02,2.7961184674484127,-3.2725840148925514,-8.791637223801946
6.03,2.828840591492622,-3.302690156270917,-8.772401350191537
6.04,2.790096821846413,-3.328245511345402,-8.771815700940987
6.05,2.8715769687772874,-3.3889036935137087,-8.88017740704661
6.0600000000000005,2.7473054164660238,-3.3373128698875325,-8.810452563816881
6.07,2.731965310976618,-3.4568857107985047,-8.756212691450315
6.08,2.713410550670241,-3.4097672529535186,-8.717974882052824
6.09,2.8852425198765794,-3.4841490114425278,-8.691567381405596
6.1,2.8511974306353878,-3.5371402694099294,-8.710308243274088
6.11,2.823683739382842,-3.501436298425903,-8.688562903716658
6.12,2.8483900913633815,-3.5347498300600115,-8.688434791515238
6.13,2.785990638366351,-3.5613800970592044,-8.645969650735454
6.140000000000001,2.9723707466568596,-3.5989897426568866,-8.652178263085068
6.15,2.864306773812118,-3.628600644672626,-8.652105744067562
6.16,2.871022416537121,-3.5307666995912506,-8.656384084785923
6.17,2.90949225124311,-3.6142783563731316,-8.62647780572836
6.18,2.9048497932398023,-3.660481928005117,-8.59389502925679
6.1899999999999995,2.89953300117111,-3.7139912225484757,-8.592340310086204
6.2,2.8562984916406164,-3.6920066953015125,-8.574271267224317
6.21,2.9268228834413685,-3.7390733167016554,-8.513785793989921
6.22,3.0047216699686503,-3.7860961159356203,-8.555285538781071
6.23,2.9852060481785556,-3.824842352528853,-8.588629811751339
6.24,3.0048524929713984,-3.8357919713109023,-8.4996517493067
6.25,2.906833903602479,-4.012173259572121,-8.599812004433437
6.26,2.890059278277027,-3.864851427777812,-8.573262290224243
6.27,2.9403382083854672,-3.921358141282767,-8.490110059306321
6.28,2.9564449365770415,-3.838676830773523,-8.468816385409411
6.29,3.015342404246743,-3.938542014906135,-8.54464729224191
6.3,2.882926635378768,-4.019978952986069,-8.48932054820201
6.3100000000000005,3.0508872240232257,-3.983868823331968,-8.488296947942668
6.32,2.973311859482121,-4.054347180404971,-8.470169495266575
6.33,2.9666133560435557,-3.998859162074423,-8.386530248251667
6.34,2.944039859329313,-4.028292499027909,-8.386292544324974
6.35,2.9185323321790717,-4.015079991274102,-8.410516509353691
6.36,3.0490061085365676,-4.122469794554179,-8.424837654295763
6.37,3.0180281249535925,-4.10100052584346,-8.453039438209123
6.38,2.956320971397771,-4.190548618082716,-8.30260500010654
6.390000000000001,2.962463919990205,-4.106640648503157,-8.332107388124621
6.4,3.0167694291716614,-4.135010850189979,-8.385188557880813
6.41,3.1232924212230406,-4.1552242536202195,-8.302061961821611
6.42,3.0330862464626507,-4.198814644557563,-8.32978638843278
6.43,2.9770748376878546,-4.196858971600154,-8.32891200316318
6.4399999999999995,3.04605262070019,-4.155903552077035,-8.281126925735338
6.45,3.050752917244817,-4.268718935818759,-8.328344637058594
6.46,2.935535535706814,-4.265696465954833,-8.296892605989294
6.47,3.0735972649742123,-4.344920301136633,-8.262121190348049
6.48,3.07063870959024,-4.351833035697791,-8.281712239916596
6.49,3.1228103895211743,-4.321156055510496,-8.21188838456329
6.5,3.1862036396025757,-4.288297506140791,-8.140551357375472
6.51,3.155780900304782,-4.373576427159342,-8.260442233435544
6.52,3.0916460016536895,-4.389647170967534,-8.294768366040975
6.53,3.0553428254431623,-4.415105346604919,-8.30044752676713
6.54,3.244856618023107,-4.438229472461206,-8.196797486951429
6.55,3.124609804729794,-4.413294476560001,-8.211412505586681
6.5600000000000005,3.127746277853378,-4.519278246816299,-8.1569095610329
6.57,3.1311850920246305,-4.3965616620782075,-8.149790593896663
6.58,3.1475776492254592,-4.509894056915438,-8.225770248618776
6.59,3.1356779168262725,-4.456363164208677,-8.225615008121967
6.6,3.119375755435268,-4.571614837642848,-8.10940947882274
6.61,3.1258191508333297,-4.490150727407887,-8.106845357317608
6.62,3.156567932838556,-4.505294677012489,-8.124395099180314
6.63,3.136018046100057,-4.534802421187856,-8.17552691634001
6.640000000000001,3.132470808131826,-4.6186761147522395,-8.058745232505688
6.65,3.178298480937634,-4.5712410978663955,-8.008445768172114
6.66,3.1650319769493356,-4.657456903934105,-8.047949822212141
6.67,3.2577242887191296,-4.62534973265199,-8.094114431365773
6.68,3.0546598216813097,-4.575470402193107,-8.03948984684838
6.6899999999999995,3.246407137901312,-4.601157589573229,-8.100086121840308
6.7,3.2586992884884274,-4.654107442719611,-7.96903289458825
6.71,3.0972284420215646,-4.717303236173019,-8.008078067923957
6.72,3.188206131703616,-4.649802395561868,-8.0909076050603
6.73,3.1911506015253255,-4.6944542960655715,-8.007954337727474
6.74,3.143668712716732,-4.824603568214459,-7.960269041073501
6.75,3.1794145793586956,-4.682443735157206,-7.99069386856684
6.76,3.166977146742897,-4.7355974718541365,-7.978538742043189
6.77,3.3142593416743313,-4.686897197918746,-8.01676284172112
6.78,3.277508921951971,-4.814240706889797,-7.918111959635235
6.79,3.2983211901108858,-4.930593449563285,-7.969857429866417
6.8,3.274784670747277,-4.769908970773607,-8.036351049536096
6.8100000000000005,3.186145259995801,-4.781213883435771,-7.9382874622329185
6.82,3.2202077156565903,-4.892078725239612,-7.8619650608432
6.83,3.2746773882840503,-4.868047547035634,-7.921770234873613
6.84,3.192816204161668,-4.692763635887728,-7.807030100585652
6.85,3.2932254067775895,-4.857031714396557,-7.864092004664373
6.86,3.2491510163012407,-4.81625478409533,-7.860320089868549
6.87,3.2459569118951945,-4.896212344747763,-7.875503114529561
6.88,3.303715437559818,-4.978896373774442,-7.864431370902358
6.890000000000001,3.2937888689454256,-4.89342145629202,-7.866231791119327
6.9,3.2568743940150076,-4.908541712187051,-7.860328335718112
6.91,3.3361748843258447,-4.925434147429946,-7.8109374757134775
6.92,3.2273795715811335,-4.921177026094968,-7.87665106165706
6.93,3.3153924739271052,-4.912062503672646,-7.876146528871364
6.9399999999999995,3.317352284601223,-4.942439068520519,-7.871118554936425
6.95,3.2752599618755056,-5.007617390351909,-7.705398608865308
6.96,3.310022493438078,-4.929418446894113,-7.7740032195004645
6.97,3.2340771814853784,-5.060333808037534,-7.77825218719845
6.98,3.3456896526989297,-5.074347741345109,-7.839427261988072
6.99,3.2930370245780614,-4.943662790699573,-7.748578321434686
7.0,3.2788781638443045,-4.963890230904525,-7.778887951025463
7.01,3.3601352798269364,-5.000558106229614,-7.755785769621363
7.02,3.2750764250569575,-5.075735702062056,-7.80888178169885
7.03,3.2424175911888935,-5.049461787663412,-7.7457164029829295
7.04,3.237494467915533,-5.035134744776397,-7.76872393180388
7.05,3.3480498884884797,-5.109551651818556,-7.779739333099782
7.0600000000000005,3.256089551746806,-5.074296485935584,-7.698804856153423
7.07,3.410150492208987,-5.012145361818287,-7.806572588186675
7.08,3.220552183696559,-4.980642332504495,-7.695751769969289
7.09,3.411647423470214,-5.080054124605948,-7.684196739690272
7.1,3.3394894828898223,-5.028161985313842,-7.756961471854334
7.109999999999999,3.3261549862259,-5.168422815403698,-7.748682415711546
7.12,3.305734722670802,-5.046310211752764,-7.7136331120433415
7.13,3.354865496686723,-5.125872867059223,-7.683325634900946
7.140000000000001,3.3348929252113266,-5.076530703138892,-7.700146229405394
7.15,3.3937436566156487,-5.110338159176733,-7.666032426388233
7.16,3.3460317581340244,-5.037812557034508,-7.594900273174649
7.17,3.3495151669190175,-5.1532680692103465,-7.703906022458446
7.18,3.3254370410624574,-5.08370945283874,-7.759882900819934
7.1899999999999995,3.342325793486449,-5.134439211594252,-7.628564783070841
7.2,3.3620564175434353,-5.133583907353314,-7.581566169836261
7.21,3.2625889773375434,-5.139896978250442,-7.642098811400931
7.220000000000001,3.282056989961951,-5.177854571062676,-7.712264889980431
7.23,3.387936109631087,-5.140973601561906,-7.660347681161765
7.24,3.360560584764488,-5.147930026056003,-7.70649069165015
7.25,3.3440003030913052,-5.137095903443464,-7.614969495466296
7.26,3.3552410585494963,-5.149124409516585,-7.711361275026288
7.27,3.3727560606570135,-5.117473246807977,-7.655624827738224
7.28,3.329384313694659,-5.115052509702741,-7.68779446180872
7.29,3.3183900806658047,-5.217445829296913,-7.628333449754248
7.300000000000001,3.3679682846493058,-5.1249946106164606,-7.650227178626297
7.3100000000000005,3.310065763284041,-5.2311005678688565,-7.620446046402026
7.32,3.3801430858620845,-5.145573485450718,-7.625679658397736
7.33,3.275284970495892,-5.146993975792545,-7.673782464585955
7.34,3.4124932837525725,-5.276393571193828,-7.590897577153721
7.35,3.3852243683076297,-5.178857822047875,-7.622611500636279
7.359999999999999,3.374892607647862,-5.209442958880776,-7.667671590128351
7.37,3.4116599253881184,-5.22630015599251,-7.504411113858024
7.38,3.4461709770012536,-5.122995442486374,-7.590988844631374
7.390000000000001,3.4139252555057418,-5.225230658003635,-7.620967113270037
7.4,3.2714101533605255,-5.234706710328812,-7.541178608032717
7.41,3.299659741509291,-5.192276840556734,-7.518623996423379
7.42,3.3325199959228278,-5.163288419413912,-7.616899544723452
7.43,3.3651254208626806,-5.205989280236009,-7.5913209934251284
7.4399999999999995,3.3897013707879626,-5.141759917255908,-7.657291426236052
7.45,3.327466388416253,-5.174533923596436,-7.614593072722923
7.46,3.372964685277831,-5.310830217313876,-7.616670536566749
7.470000000000001,3.3256675786050036,-5.229062635293929,-7.597101929093354
7.48,3.33260882569298,-5.231183722459356,-7.589473084059524
7.49,3.292537267078622,-5.179458592931156,-7.578029507966928
7.5,3.3163318849048466,-5.3348352021518455,-7.594190637843767
7.51,3.2944701659275286,-5.076144245852932,-7.666803765458835
7.52,3.312759211509452,-5.176876464054718,-7.653525864234459
7.53,3.41367107688031,-5.195649598727323,-7.6344007469719175
7.54,3.3128927971778497,-5.1435133276335785,-7.621812188502928
7.550000000000001,3.491293248592357,-5.084739856294455,-7.5559231095184725
7.5600000000000005,3.3835891015185835,-5.157548604439015,-7.667512229863528
7.57,3.3673517401564736,-5.152641147914552,-7.6282811826147885
7.58,3.314316448562522,-5.192375606806017,-7.563946682799481
7.59,3.3913119217243026,-5.204647085921643,-7.627919204121243
7.6,3.32651432443753,-5.21985358617704,-7.5913740158919385
7.609999999999999,3.3603342042735136,-5.235694690238757,-7.622982496698588
7.62,3.481113160778844,-5.226897263642401,-7.604917771678665
7.63,3.3471188952259237,-5.258063941543441,-7.631072843968111
7.640000000000001,3.408136263141383,-5.192151337533234,-7.5883287488076245
7.65,3.314202247456082,-5.270244717924815,-7.701107935894142
7.66,3.346237897103096,-5.17395094979826,-7.644333843210803
7.67,3.43509140387468,-5.182630511862571,-7.613792499990649
7.68,3.313704884497507,-5.1706160913505705,-7.6045287386188205
7.6899999999999995,3.4341153634513932,-5.20104987504108,-7.559297408454342
7.7,3.3772580821647624,-5.017912175195619,-7.656366660944954
7.71,3.3120625676837157,-5.100392639581463,-7.565850237864039
7.720000000000001,3.3700596061005625,-5.227100026491066,-7.675922569765782
7.73,3.385258166986714,-5.149535067846451,-7.579823891106719
7.74,3.365850102537536,-5.18771532736495,-7.608805078927377
7.75,3.2543154855645917,-5.204006400947427,-7.698910570614835
7.76,3.2944749605327166,-5.216084123852247,-7.641581444331222
7.77,3.316398990140662,-5.123098363485963,-7.66332707906849
7.78,3.3229343828617055,-5.174237316249318,-7.633453596562339
7.79,3.355508847151453,-5.08706639124897,-7.679999126788784
7.800000000000001,3.331117562372955,-5.0808881000324595,-7.688435269263006
7.8100000000000005,3.2531606738587797,-5.056830985265181,-7.608989819308933
7.82,3.3365713013348874,-5.16292535349114,-7.686885836916077
7.83,3.345662379456593,-5.091146700084132,-7.645267029521451
7.84,3.340632494100295,-5.077730724407717,-7.702626622939557
7.85,3.364130114075553,-5.127330118882343,-7.612928760870451
7.859999999999999,3.3491735494769155,-5.136306730996716,-7.7352129085726675
7.87,3.327761099593038,-5.011167995683998,-7.73716837421557
7.88,3.298556786744883,-5.074023925617455,-7.635530498795657
7.890000000000001,3.216218358809037,-5.0471836357542985,-7.739428332890075
7.9,3.3178870405719216,-5.113497557345645,-7.64268078777262
7.91,3.3038686643584847,-5.126597956630726,-7.6838241203614075
7.92,3.3040798346021245,-5.0871742526879915,-7.741957743111493
7.93,3.2236185759668166,-5.057798726771631,-7.830825791078386
7.9399999999999995,3.2302968267596874,-5.097532220419536,-7.747188916159187
7.95,3.333839521028914,-5.037364496809405,-7.747328661526966
7.96,3.275974960187307,-5.113675828152731,-7.700360960138996
7.970000000000001,3.3087372474038146,-5.0774583289858395,-7.685734913068772
7.98,3.272726322164086,-4.979942660330415,-7.805965005150711
7.99,3.269385139183988,-4.9751576349217705,-7.738337071977397
8.0,3.3113372320856924,-5.016626406912068,-7.746927880187481
8.01,3.2350853392145913,-5.039432456346657,-7.738449652438359
8.02,3.2620970169480072,-5.031252149269022,-7.774227705039643
8.030000000000001,3.2305195299986575,-4.989708966486437,-7.903447737436332
8.04,3.2281897593209803,-4.929808856250617,-7.821372475483951
8.05,3.230676247622949,-4.906437158974873,-7.878782175866605
8.06,3.253400880100764,-4.968315920646494,-7.838638548942466
8.07,3.2144552014091805,-4.991628864485144,-7.787134593310371
8.08,3.297218032487855,-4.910851780930513,-7.828617935696794
8.09,3.185676657916328,-4.955535032812419,-7.794324764246287
8.1,3.216979491964716,-4.93020963132632,-7.842607613764866
8.11,3.2001918788298287,-4.827796095943278,-7.932688780009756
8.120000000000001,3.2903220429306197,-4.842291009123756,-8.002002160851175
8.129999999999999,3.223535017759004,-4.865158717930155,-7.876815822003226
8.14,3.260973104113638,-4.925887604449938,-7.903357107429232
8.15,3.130715980303059,-4.84077941093566,-7.950019606626294
8.16,3.2138992141827893,-4.787097121384545,-7.994821151016103
8.17,3.2405205801303523,-4.847715376787978,-7.9552492580532475
8.18,3.1955852751016707,-4.749904458615477,-7.9370627119896335
8.19,3.2401168847137125,-4.741171933382797,-7.9029728949965605
8.2,3.156290048922136,-4.710793961420591,-7.935865350239886
8.21,3.2478733250669007,-4.766712029996081,-7.874023976602845
8.22,3.287542278965553,-4.740420173056936,-8.015437124984942
8.23,3.14958686543591,-4.686717766892489,-7.928931526809475
8.24,3.1405251527783573,-4.722516425367612,-7.980043852380122
8.25,3.2304811175078676,-4.757228255494524,-7.957195208789606
8.26,3.231742310780083,-4.741695379522306,-8.023368615047934
8.27,3.1215127735733663,-4.694263263659205,-7.957666151363302
8.280000000000001,3.121478834604654,-4.757462772338538,-8.00628806731603
8.29,3.12317174307194,-4.686662087358735,-8.064911258347719
8.3,3.0647517129272703,-4.611056814942453,-8.041519200883187
8.31,3.0806954433580267,-4.761652324501862,-8.062962773157814
8.32,3.071015413071306,-4.5613912673468215,-8.03667972417306
8.33,3.077367664645575,-4.567842533852017,-8.130366498101582
8.34,3.108499143992034,-4.632615337331529,-8.083168285365215
8.35,3.1163607985869413,-4.567943279149873,-8.072341047891815
8.36,3.176532663477228,-4.580260868818973,-8.100942262808308
8.370000000000001,3.04338849306746,-4.50404376608066,-8.045813314641224
8.379999999999999,3.1367619277798524,-4.50135363146897,-8.085104728630121
8.39,3.071027112955098,-4.605255189852261,-8.134902537350357
8.4,3.0733753306147302,-4.490471651682158,-8.134492397782966
8.41,3.1036527453103377,-4.514518436470807,-8.141416227922772
8.42,3.0077802989506663,-4.484316745477207,-8.146980036165253
8.43,3.0769829734349483,-4.508907271090612,-8.269444833173052
8.44,3.060072722455514,-4.368951016743753,-8.204325107342186
8.45,3.0702019250466273,-4.38803279324355,-8.274626071340034
8.46,3.0538087527976994,-4.460521211806072,-8.147712374422134
8.47,3.1558280813978135,-4.473578652003893,-8.225956680789922
8.48,2.994830711143583,-4.409265871413999,-8.243933003565639
8.49,2.993764468849075,-4.351209835735044,-8.200840286923732
8.5,2.982695955974729,-4.343695982352055,-8.236039023955176
8.51,2.9795599416868668,-4.275639495295546,-8.325121468433787
8.52,2.968887497516834,-4.281208554012248,-8.283827303229673
8.530000000000001,3.053573069841626,-4.254453029355672,-8.308688923934321
8.54,3.0584552715814977,-4.268634192820662,-8.390860431473808
8.55,2.9521430812574656,-4.336305937640271,-8.349903895615098
8.56,2.9322555703502355,-4.258308546268575,-8.336374885542316
8.57,2.9905797926723356,-4.1770203658930045,-8.344803083607973
8.58,2.932476338826391,-4.213920891652852,-8.425073041711558
8.59,2.984755467075786,-4.167328833343543,-8.305330765035293
8.6,2.956219421030268,-4.189378154037842,-8.380016775879236
8.61,2.8631935674574813,-4.205707573801715,-8.385074908711742
8.620000000000001,3.009206747761266,-4.1409793720305546,-8.3790031279313
8.629999999999999,3.0144194000367155,-4.09977402755829,-8.450561715627348
8.64,2.886723528764898,-4.128244170588718,-8.400501172688623
8.65,2.8906588555321124,-4.087298008110598,-8.453870468607496
8.66,2.916961802846641,-4.10235767981662,-8.492578787948764
8.67,2.911959709442513,-3.97911390066664,-8.431343225702395
8.68,2.9206762654750085,-4.029310278938905,-8.397729609235288
8.69,2.980715415466071,-3.921280945240226,-8.448399437697024
8.7,2.8637580292629408,-3.8966326322858573,-8.450847817494529
8.71,2.825034907695994,-3.956093893117134,-8.535410476417466
8.72,2.7882724778552235,-3.9812560793080842,-8.601666912824308
8.73,2.8129250106364485,-4.013741285375452,-8.459709022896229
8.74,2.839992756537118,-3.9614819317182635,-8.443941375617888
8.75,2.9234992263309123,-3.934826694092089,-8.481997500940128
8.76,2.79995774899767,-3.7752877987420392,-8.588415598722234
8.77,2.829039563679211,-3.8163181088296456,-8.641862461999617
8.780000000000001,2.8089858644714107,-3.7803491934034974,-8.649933537565815
8.79,2.861128627979203,-3.888392881735661,-8.693367131048076
8.8,2.919902774461171,-3.8146352161794566,-8.627091199153169
8.81,2.7588052603407496,-3.687570957293608,-8.553989020043886
8.82,2.7526147539266486,-3.6945976309822917,-8.65391379762497
8.83,2.8209784036681413,-3.6931316962971046,-8.644277577581747
8.84,2.7944943013697108,-3.634188496887617,-8.603180445711478
8.85,2.8443103213446648,-3.5571243904659404,-8.704733348302518
8.86,2.7726925825459747,-3.626274965757999,-8.595320215499727
8.870000000000001,2.716998907146892,-3.587888238162646,-8.610058386764871
8.879999999999999,2.755909843123802,-3.5576865358822136,-8.728781299620465
8.89,2.7731722545118043,-3.423496781287391,-8.763659569237463
8.9,2.750067676106521,-3.623682661255119,-8.712470763703141
8.91,2.7256604127055932,-3.459993478352324,-8.777249596652629
8.92,2.7448303783341768,-3.475162227404915,-8.830230852612031
8.93,2.7411082819391486,-3.4161792446467336,-8.720858143862234
8.94,2.7428453748437933,-3.4523109467379527,-8.736600117215037
8.95,2.6972140465161574,-3.3966443895461778,-8.802132923583933
8.96,2.6474111197966406,-3.3332093346001685,-8.885519547162914
8.97,2.6540386667098317,-3.1875485784711026,-8.896300397367567
8.98,2.6979120194683253,-3.2770376133247843,-8.841888546504073
8.99,2.587571151019728,-3.3339197735109343,-8.884645821060252
9.0,2.637630883818703,-3.2866139296759513,-8.889083688783577
9.01,2.590257628871461,-3.2618391462086813,-8.833280354769819
9.02,2.6020373772024965,-3.3025268175733604,-8.860039898808251
9.030000000000001,2.655146660581489,-3.2026598069910133,-8.840081150459172
9.04,2.5913514676736717,-3.1227596172416177,-8.97077612077799
9.05,2.574639455755908,-3.1961943196910885,-8.95062665829907
9.06,2.4947947556874324,-3.052976843029175,-8.90770375273079
9.07,2.59051915003175,-3.0537678847996212,-8.935396510477656
9.08,2.5758487199157463,-3.087462117739825,-8.893289028867573
9.09,2.6420545730535174,-3.0302597400681885,-8.960947065038873
9.1,2.5087696960786463,-2.9155397786441704,-8.901590734434386
9.11,2.525332499305729,-2.930891735228913,-8.978972234914464
9.120000000000001,2.5170103068566205,-2.939084706230637,-8.96479454742357
9.129999999999999,2.573529852800643,-2.92320520263238,-9.045959539384482
9.14,2.4799585677161273,-2.8791310128028975,-9.040899604058172
9.15,2.4886908297674766,-2.880034270984195,-9.007844445598852
9.16,2.4951014072194075,-2.931013326373949,-8.984466220654701
9.17,2.463954452001275,-2.6948427973839695,-9.040320746964797
9.18,2.422170483080228,-2.760208339769371,-9.092550895913531
9.190000000000001,2.444015754527108,-2.7189381680767486,-9.031075768663577
9.2,2.4777630270734683,-2.712460913637314,-9.221030424836327
9.21,2.3624771247051175,-2.716891441266086,-9.1939692143061
9.219999999999999,2.410124261908791,-2.6598530263632734,-9.100137074311933
9.23,2.358094238706355,-2.700799931893491,-9.144808244515545
9.24,2.442428900435977,-2.4771025337704775,-9.126464726786077
9.25,2.296045478393972,-2.622663498595094,-9.164676948448903
9.26,2.333739129107415,-2.582372748307708,-9.150435430054364
9.27,2.3699785356097025,-2.522480564168088,-9.230715036863437
9.280000000000001,2.4187793668711937,-2.4056147794838334,-9.172407888559675
9.29,2.3265535609635606,-2.4387030456114074,-9.162072214423738
9.3,2.2913718745002063,-2.4705053779626867,-9.16154795444078
9.31,2.402433533758187,-2.3151131386215047,-9.132600464782723
9.32,2.225172053042961,-2.3102741013656707,-9.231694469180695
9.33,2.1767829432987544,-2.2887603184881766,-9.240741942667745
9.34,2.297828070218466,-2.248618413946909,-9.341049507815425
9.350000000000001,2.239782546105784,-2.1332765033641814,-9.301828523923739
9.36,2.2028355198675467,-2.1121970437219475,-9.295191220117813
9.370000000000001,2.278281072324208,-2.224113786532243,-9.243210818490585
9.379999999999999,2.243973754028795,-2.0767803827138396,-9.336375485507695
9.39,2.192454828911314,-2.1068845771612397,-9.27601446424231
9.4,2.1454733522000207,-2.0690296686567584,-9.325824452097098
9.41,2.241896216930213,-2.1464139874270645,-9.344418013937993
9.42,2.2195233528824474,-2.0380116468653617,-9.332833982157181
9.43,2.170749809006153,-2.0377028076934085,-9.374456905807481
9.440000000000001,2.2566913258746033,-1.9231067618543214,-9.3858712083508
9.45,2.0994618794905517,-1.8782840222982335,-9.459077284849002
9.46,2.0652524723098877,-2.002772462669161,-9.395551276062756
9.469999999999999,2.0954521164481728,-1.8672432391914358,-9.416363044592746
9.48,2.11624339023377,-1.7770265417735545,-9.42726883228444
9.49,2.1191214238995784,-1.8093179903305143,-9.389623943507592
9.5,2.0832812067063444,-1.7302831401953707,-9.386425091597578
9.51,2.101291345146185,-1.7158197518526772,-9.416525962310503
9.52,2.009414388418784,-1.6828277230460174,-9.387032475676877
9.530000000000001,2.1324398050149305,-1.6799018000254102,-9.416579896565018
9.54,2.044361875494409,-1.6934846315531693,-9.468551447938049
9.55,2.092509944815091,-1.6549474954353127,-9.485266681754833
9.56,2.0419152146467763,-1.5295162642048452,-9.454691281416121
9.57,2.035708694950741,-1.5300230485496098,-9.449734591752858
9.58,2.0294099957939067,-1.5038344944384727,-9.41650206392188
9.59,2.011316388494257,-1.4839188500243645,-9.43468650555397
9.600000000000001,2.009035379161933,-1.443703511232034,-9.529048020535264
9.61,2.0312843225987947,-1.3417241811757323,-9.514681037055405
9.620000000000001,1.962539607273458,-1.376365398188621,-9.483512152047378
9.629999999999999,1.9760102118980305,-1.3920993291891317,-9.471020284693845
9.64,1.9238795630645527,-1.253217649808658,-9.484702509107704
9.65,1.9881386080698364,-1.2659112460840454,-9.541948246531872
9.66,1.8700398359281982,-1.2192796207744072,-9.608430329436645
9.67,1.9815937103093155,-1.1055691381434898,-9.6025212539628
9.68,1.8771867935696882,-1.1519931839586766,-9.545657341904455
9.690000000000001,1.7952649353664731,-1.1014433765834233,-9.54876063410027
9.7,1.8607791408644558,-1.139708291892497,-9.627256080371284
9.71,1.8078530317250836,-1.056529164274989,-9.576410144728227
9.719999999999999,1.8714311871289946,-0.9797788579161547,-9.553259269501188
9.73,1.7842231433700468,-1.0526610989306524,-9.64842808637045
9.74,1.7819626790819427,-0.9294170947031861,-9.541526641398162
9.75,1.6971747377310822,-0.8989183313350768,-9.621425388958638
9.76,1.7563790375513695,-0.8663255713763454,-9.545302210816578
9.77,1.6451058638806788,-0.7808995184905478,-9.640350374164251
9.780000000000001,1.674373306149389,-0.7803404646757052,-9.670363930619173
9.79,1.7788211817892825,-0.6874030887553554,-9.647153621589029
9.8,1.7672860884323653,-0.7751717881217141,-9.634076720129798
9.81,1.7364284664532512,-0.6828250275678145,-9.653673516244446
9.82,1.65393041307527,-0.6494721646960767,-9.64983672649174
9.83,1.6869816571184966,-0.6711797806748734,-9.626981746440512
9.84,1.6762397254744403,-0.5338731706468215,-9.6567378454196
9.850000000000001,1.6055191194215703,-0.4293764511652707,-9.655838228838661
9.86,1.7255898966610588,-0.5103359739370252,-9.74220187960412
9.870000000000001,1.6812361034687466,-0.4480655633774463,-9.641217211245737
9.879999999999999,1.613233421868925,-0.43287907955535954,-9.669176839504374
9.89,1.6125054540969206,-0.43653211261157254,-9.587969031413692
9.9,1.6084259809412467,-0.4556003190192155,-9.719080845869406
9.91,1.4827321802977458,-0.3635240230583287,-9.76598764531708
9.92,1.5592388016343939,-0.3614720041961657,-9.647990638143481
9.93,1.5242441294701148,-0.17027549155756838,-9.664739321976297
9.940000000000001,1.4949751978627561,-0.22481245271400327,-9.735508919021612
9.95,1.5176814879906144,-0.1999012637261402,-9.76444588035629
9.96,1.6082688445529552,-0.10166999240766467,-9.613808940255916
9.969999999999999,1.537042652745984,-0.16571378835339154,-9.62254241678322
9.98,1.4630257932446986,-0.1114462592787662,-9.820038410666532
9.99,1.5067666231921353,-0.033156659129026066,-9.720842524930811
10.0,1.5346267735150259,0.051438449571173314,-9.616835449155202
10.01,1.4973812484602356,0.06165988711138132,-9.725809475285532
10.02,1.4405909604618674,0.08558075947730102,-9.728345637141906
10.030000000000001,1.3916920667608454,0.11367035588919919,-9.719608844011434
10.04,1.4453493930875887,0.16638519115796052,-9.763018570447187
10.05,1.4164819496088583,0.1930717954637597,-9.793562189068998
10.06,1.4279071995607122,0.1681109681746165,-9.656892422697338
10.07,1.4012166673002677,0.2585365094313722,-9.802709622819854
10.08,1.4082172082356723,0.23917146928575908,-9.699088720031734
10.09,1.3152305409128329,0.33353162161197536,-9.66785930830737
10.100000000000001,1.3940862457344343,0.342062777407535,-9.785332039078105
10.11,1.3242925547576534,0.5296758716879579,-9.759413038421432
10.120000000000001,1.4043437214879333,0.43731547092526346,-9.652816034487024
10.129999999999999,1.252261742683446,0.40569124180705746,-9.686952319844762
10.14,1.3596324139810176,0.5057747168114564,-9.744429720747764
10.15,1.2688157708040597,0.5750174960011322,-9.65326824001703
10.16,1.212408540857324,0.6692667589643682,-9.652716018014765
10.17,1.2068178453147875,0.5926559643870445,-9.699099303074334
10.18,1.2010012400726113,0.5795160775643926,-9.756916288800774
10.190000000000001,1.2242074305970274,0.7359649387028666,-9.731784471273356
10.2,1.2150957825705677,0.6625533373073219,-9.695844115685395
10.21,1.1461985186430688,0.7462081123411014,-9.71849253445867
10.219999999999999,1.1595702252656896,0.7915377564778301,-9.660862488894796
10.23,1.253781124701276,0.8373081488930781,-9.782895138703488
10.24,1.2188999243953162,0.9115850927178354,-9.779564573507397
10.25,1.1401699079756593,0.8792460780010741,-9.694102048584675
10.26,1.1060609496096399,0.936003995878544,-9.725866671812904
10.27,1.095945779841647,0.9851992255566019,-9.730635789531723
10.280000000000001,1.106380231382681,1.029572422736955,-9.785530609641729
10.29,1.0103018008471825,1.0631190454722987,-9.69384587559552
10.3,1.0342869722366528,1.1161164058721635,-9.695007794158665
10.31,0.9494185363990348,1.1725476850582157,-9.65709496020121
10.32,1.038478706353193,1.1859760691323398,-9.683575020873468
10.33,1.0365253254499798,1.2249592597596042,-9.690755070543798
10.34,0.9656326514675392,1.1590493233361086,-9.62223309292882
10.350000000000001,1.0540965272914822,1.2764951605178276,-9.743519090124947
10.36,0.8996931902766798,1.33372316743541,-9.647743853968949
10.370000000000001,0.8733263855676423,1.3818975167742031,-9.75464392518288
10.379999999999999,0.9433110513629208,1.346472177274471,-9.709384271769753
10.39,0.9699666847294738,1.3837115502547908,-9.724335725014331
10.4,0.9873117459822693,1.423464772503631,-9.620700257114425
10.41,0.8656553277900052,1.5144272513008845,-9.65902100501209
10.42,0.9279986556270184,1.574665788995022,-9.652238151777933
10.43,0.8575854634917934,1.5378903217697946,-9.702572338354251
10.440000000000001,0.8363073021587065,1.63887743487091,-9.657754106244244
10.45,0.8745312592710044,1.634791702565997,-9.676338345249096
10.46,0.8483561251605163,1.657462226467481,-9.614250770278304
10.469999999999999,0.7222945250515092,1.6880845368050732,-9.67810022002574
10.48,0.8602980447356112,1.7708780089880423,-9.557042720191806
10.49,0.8408155425068629,1.7846345238425558,-9.702163823184746
10.5,0.7258561516226877,1.9168676475216104,-9.653429717980652
10.51,0.7622314513863416,1.795096500198874,-9.523830188287004
10.52,0.7524337605429672,1.8981528602472215,-9.623902220561824
10.530000000000001,0.7260412175131764,1.8802345391371538,-9.66221390947488
10.54,0.6707521645716453,1.8975819233750226,-9.579711778048745
10.55,0.6499310761058876,1.9747575765907528,-9.60850211927836
10.56,0.6674646071041673,2.0163243170766365,-9.62046604713931
10.57,0.7125943869506228,2.1894203633479616,-9.627280104061226
10.58,0.6663394440496115,2.0682567667912037,-9.427757060548773
10.59,0.6058164113946037,2.054803032256671,-9.572318827618652
10.600000000000001,0.6481062634273062,2.1587041278609664,-9.649462593098256
10.61,0.4522552223567477,2.0749551118505263,-9.471820436158547
10.620000000000001,0.6372688073767537,2.207612894890011,-9.509154009676518
10.629999999999999,0.47798046423198837,2.246423930932674,-9.57111368345683
10.64,0.5319675175981755,2.318651159320305,-9.572411562663786
10.65,0.47921758142487275,2.3607855089098697,-9.484930935866569
10.66,0.45556693360624506,2.319992211521115,-9.52368448068301
10.67,0.563431017943813,2.3705875990714973,-9.600257783138282
10.68,0.46708235026514244,2.3726394633464576,-9.407104896984897
10.690000000000001,0.4928597177898288,2.387247481445283,-9.51056344968245
10.7,0.4582453111968242,2.4917266684436554,-9.406372769885554
10.71,0.46949022284539993,2.445008520483671,-9.409408825020794
10.719999999999999,0.43451646450854947,2.520285217238259,-9.51545345628421
10.73,0.3515536169358685,2.523457888065246,-9.405710502046606
10.74,0.45053541997322966,2.6327704080558596,-9.481805185129156
10.75,0.3610444166561196,2.7272954508000615,-9.534328647283411
10.76,0.29290495727660487,2.6039486899628947,-9.453883051617208
10.77,0.33432206408339454,2.608046182528983,-9.404331240846378
10.780000000000001,0.41575186936480313,2.7259850989337364,-9.438811865120165
10.79,0.3682036369678252,2.7644084497904995,-9.422392822063024
10.8,0.29323155033031106,2.8058109004803207,-9.341132456032305
10.81,0.27816614128579736,2.803675037897379,-9.384162932736686
10.82,0.2645057310160855,2.846929492645144,-9.422737493713498
10.83,0.3693772530626236,2.9061631666476098,-9.336465647152353
10.84,0.2695832358783525,2.970489720353937,-9.352589187649029
10.850000000000001,0.2569297201468291,2.8512491717044663,-9.479371817388733
10.86,0.2718778764205432,2.9609395589677145,-9.322606954956484
10.870000000000001,0.21723444548261978,3.0203119763866058,-9.315082215791772
10.879999999999999,0.17726970858690463,2.9938064388315793,-9.324234299135679
10.89,0.1653270231298894,3.156194768902371,-9.271141322781137
10.9,0.15648335066350647,3.067642824538038,-9.339752967774679
10.91,0.14311772533351158,3.1269703734257153,-9.279637835574059
10.92,0.1662725906051549,3.1863011478177805,-9.365064599164493
10.93,0.11739786410363337,3.1582428907301474,-9.256541865397816
10.940000000000001,0.13633953768457288,3.1246263410925885,-9.169350790856466
10.95,0.0805765040405109,3.2245096488472527,-9.306783319318422
10.96,0.07344705467008682,3.326240063584515,-9.284998376062532
10.969999999999999,-0.04549328633232181,3.2865859976689444,-9.272409566271618
10.98,0.08513340280478582,3.2896076118139916,-9.220243887723862
10.99,0.04154086032463675,3.406546180262449,-9.269666828890486
11.0,0.059015833649766807,3.371890571630864,-9.185161812473194
11.01,-0.15079874705631383,3.390920378246574,-9.15353104591278
11.02,0.08333158076874402,3.451731552275697,-9.158745992374394
11.030000000000001,-0.04316735431676522,3.5104567024389777,-9.263417641165171
11.04,0.004121335261618134,3.6184943353803702,-9.114716975416927
11.05,-0.11838192096813108,3.5680878794890063,-9.107032219434261
11.06,-0.05084530695146765,3.6118623804605328,-9.101766271810458
11.07,-0.14925038875358534,3.555542235630814,-9.113956278274324
11.08,-0.14286157012726033,3.5563421402335242,-9.110865061184759
11.09,-0.031062641394564494,3.6373709489997896,-9.059485069374606
11.100000000000001,-0.15138666410350202,3.6660545672217415,-9.004114547813215
11.11,-0.14606615595605482,3.633034014574583,-9.137085396828555
11.120000000000001,-0.1285162619116104,3.7042794502124585,-9.024629525280183
11.129999999999999,-0.16231366900009508,3.7589145996895885,-9.071910145732845
11.14,-0.1946508722001748,3.782692041309125,-9.063109320644259
11.15,-0.1989934336393735,3.815428634704234,-9.12244327066305
11.16,-0.11213565636258428,3.8301216951951176,-9.048813777067158
11.17,-0.2502472863857872,3.815398734349311,-9.073363440417301
11.18,-0.2523659378411345,3.8400455004575993,-9.035588929880387
11.190000000000001,-0.22493702064433718,3.830599164129346,-9.056173488930483
11.2,-0.23723627480060283,4.004405725863078,-9.012551312067771
11.21,-0.2481975422525352,3.940272987417185,-8.999228711664546
11.219999999999999,-0.29064236217557404,3.9526038026848718,-8.96288014370509
11.23,-0.39475193916685547,3.941464582045942,-9.037229289508035
11.24,-0.27094561678635903,4.158555827255783,-9.01752263712432
11.25,-0.4249423179331048,3.9817855805356457,-8.915888790796524
11.26,-0.3674931605957424,4.037498245971156,-8.962578839439843
11.27,-0.43533031861952415,4.103030077788217,-8.857689339800364
11.280000000000001,-0.4158064187026863,4.135354752436673,-8.888849515316254
11.29,-0.41113541574414664,4.176154207590207,-8.858462150075557
11.3,-0.4264704469851528,4.241358538567176,-8.806944786944547
11.31,-0.43639745549075803,4.19881290414279,-8.881637780444931
11.32,-0.3917532068416859,4.143036198474531,-8.883544902664003
11.33,-0.46469710203731374,4.205128434087073,-8.799901051976116
11.34,-0.5145061438916282,4.255309938129747,-8.806675195150744
11.350000000000001,-0.4690075757941431,4.365076387102651,-8.830182946988264
11.36,-0.4726408381970771,4.213325188488969,-8.739911740814646
11.370000000000001,-0.6083856679001948,4.364697768709828,-8.808769490619298
11.379999999999999,-0.5320143543660956,4.334720754585321,-8.785197431330552
11.39,-0.5416926482731262,4.3885747911523545,-8.774461789419506
11.4,-0.6064839159626548,4.362343432369169,-8.81094915913498
11.41,-0.5376620649451486,4.3458826716986225,-8.749048228185133
11.42,-0.6287787412074681,4.445909879661166,-8.671810763939192
11.43,-0.6298122693716934,4.461250118780581,-8.70813661870239
11.440000000000001,-0.6595460704163598,4.4970937337911705,-8.717584849270407
11.45,-0.6649008544899333,4.467587580436886,-8.715997826204848
11.46,-0.7352665134637952,4.457822878671782,-8.680157731460474
11.469999999999999,-0.7672135646973196,4.429234685831566,-8.64802626759902
11.48,-0.6302290232222403,4.567301304748787,-8.64388977748146
11.49,-0.7670302797160388,4.566483947697499,-8.679807386385802
11.5,-0.7889641320995995,4.5157550914983275,-8.635864484223228
11.51,-0.8617603759399098,4.555667911468505,-8.617024677402368
11.52,-0.8007190540776897,4.577608368114995,-8.680329868972
11.530000000000001,-0.8495889817009258,4.5449438753433835,-8.610539067907407
11.54,-0.7159803769881626,4.596152586788205,-8.716029941189849
11.55,-0.7622197304734378,4.5980853802561645,-8.572887536555621
11.56,-0.8617300491218893,4.651689494525925,-8.55308350466109
11.57,-0.729294876143089,4.6527112597302285,-8.537848373458925
11.58,-0.8074044055439341,4.625424520625711,-8.58414324827926
11.59,-0.8872918334726966,4.824828665568064,-8.53814559941913
11.600000000000001,-1.0105593980339924,4.803046158841613,-8.47165068921835
11.61,-0.7855617886064431,4.7179835383754885,-8.461455328486764
11.620000000000001,-0.9840879965407078,4.786866235704071,-8.5229444373866
11.629999999999999,-1.0113601123213132,4.810224208522639,-8.503909936128203
11.64,-0.8924224964572959,4.864806041102115,-8.444770149322196
11.65,-0.8360039783830902,4.7800171837298135,-8.564846807937387
11.66,-0.9031979729650612,4.89104325110284,-8.49550423262619
11.67,-0.9586153053727382,4.824327822840887,-8.402169912424808
11.68,-0.9714510225826835,4.800009763665167,-8.40984215040855
11.690000000000001,-0.9728744701103722,4.917884058719278,-8.42984997197433
11.7,-0.9919335571085618,4.960883992105159,-8.513374481153635
11.71,-1.0301330849801145,5.040204805829876,-8.430408251736514
11.719999999999999,-1.0532729032654065,4.865080789550219,-8.44730001747832
11.73,-1.0758802523316704,4.974065115649701,-8.391206874235372
11.74,-1.1246935013519346,4.932475514342019,-8.438245211543977
11.75,-1.1152504443637434,5.005774317216295,-8.439148999449424
11.76,-1.200062397465552,4.906517072466689,-8.481258334685233
11.77,-1.1345055577893193,4.930132605407113,-8.307145746402096
11.780000000000001,-1.193168011654434,4.967501294965737,-8.378515450507383
11.79,-1.2130433697228202,5.02306160915539,-8.341031965625435
11.8,-1.162969920029816,4.999672183070059,-8.339436212564845
11.81,-1.1164402224854666,5.077086320577967,-8.383205098986062
11.82,-1.1541749114326563,5.107680265955075,-8.383371093774324
11.83,-1.2926405836883135,5.098310983993296,-8.361344692068919
11.84,-1.277595890996666,5.161062774736037,-8.337976363102323
11.850000000000001,-1.1950486872799604,5.11250080564482,-8.27430581268597
11.86,-1.3051579246110174,5.042245605105585,-8.323320615626058
11.870000000000001,-1.2811847812634183,5.1824352147975405,-8.187190461128559
11.879999999999999,-1.256343063993861,5.0949796122953686,-8.214220567440872
11.89,-1.3461281299533596,5.181524582087647,-8.216307331955596
11.9,-1.3062797809451965,5.225251917666688,-8.253940689701821
11.91,-1.3920596094816637,5.179756599287971,-8.163562552852836
11.92,-1.3692083444990566,5.092266824300898,-8.241583274764439
11.93,-1.336904062869659,5.131112435720082,-8.223741158063367
11.940000000000001,-1.4462673348583917,5.252904404221325,-8.205264260526516
11.95,-1.358289413839329,5.187851192138943,-8.170347640340008
11.96,-1.394961280818545,5.209622314313008,-8.165361179788801
11.969999999999999,-1.3799915955096391,5.252717497749689,-8.212823690407776
11.98,-1.410027276775579,5.258521555845838,-8.207672054362881
11.99,-1.3665927668146722,5.246371209167556,-8.141077292211508
12.0,-1.4420850103345624,5.230520454593839,-8.129456825665317
12.01,-1.4833323307721595,5.233640138107964,-8.17712956498185
12.02,-1.469232097735158,5.300285410232108,-8.229162883716013
12.030000000000001,-1.4616358224113422,5.292983268823979,-8.152609835110292
12.04,-1.4997800350759363,5.2601517281977195,-8.103608312378798
12.05,-1.5135840655309807,5.334632094777189,-8.037155279575803
12.06,-1.5640718768440427,5.281382545692607,-8.180067395000128
12.07,-1.5754437467337752,5.2523571469907,-8.134344179896695
12.08,-1.6257228751540735,5.263896171342278,-8.125435533125538
12.09,-1.4813749247782817,5.259610779469766,-8.031229297320252
12.100000000000001,-1.6442750522077312,5.301429321520208,-8.093926155955376
12.11,-1.6299219965236573,5.383037148446956,-8.130811050748552
12.120000000000001,-1.6443584044839465,5.287196627064381,-8.050882525295155
12.129999999999999,-1.576819327104867,5.342775196542496,-8.092529488265338
12.14,-1.6494064777111455,5.306216768702872,-8.127105667945637
12.15,-1.5853310251573243,5.3315356536532015,-8.10422292551241
12.16,-1.694417227334471,5.274349196863685,-7.966690058401569
12.17,-1.65978273400582,5.343925022046803,-8.028100238900477
12.18,-1.7284544669098685,5.350168109501064,-8.035952578231813
12.190000000000001,-1.5923490047449358,5.391570236503789,-8.047977156703885
12.2,-1.771870153505346,5.380223610572261,-8.01512957674228
12.21,-1.709847143932801,5.313445199999399,-8.010093064024812
12.219999999999999,-1.7064612098588332,5.4316817282794965,-8.003978170792724
12.23,-1.7302356543352528,5.391896000875486,-8.007440613142125
12.24,-1.772928982738932,5.3950118365062965,-7.964454288227762
12.25,-1.782857816275511,5.388146891248295,-8.001565966084476
12.26,-1.7868413368943117,5.366034780135961,-8.046561284116947
12.27,-1.8090098454803232,5.405932468408699,-8.023345347730096
12.280000000000001,-1.7660560893471349,5.421744788619296,-8.086852202975207
12.29,-1.716276420153364,5.313347176251942,-7.881855165449833
12.3,-1.8671916713615946,5.376284354534751,-7.935471197181091
12.31,-1.9202834925770023,5.3928095888098655,-8.015643955542028
12.32,-1.8686452210932512,5.420504378308753,-7.983883202804056
12.33,-1.747644705653046,5.46930494376146,-7.997404747348963
12.34,-1.9291739999812714,5.3728007983654615,-7.884323349493946
12.350000000000001,-1.8193553431652896,5.388043358380386,-8.028454548333162
12.36,-1.8297076362362619,5.38867378888837,-7.94786741253381
12.370000000000001,-1.9535139342387589,5.375388856946231,-7.955269011077885
12.379999999999999,-1.9095873364064904,5.399076618408202,-7.9048732829936545
12.39,-1.8687785229378517,5.455752991914731,-7.947909758756558
12.4,-1.9812762741367007,5.365104541220524,-8.027235587646974
12.41,-1.984579882332536,5.439577234270321,-7.94861890313117
12.42,-2.0155251077312393,5.333288630884432,-7.981531249773538
12.43,-2.049178094199647,5.3903213653789965,-7.925926768901113
12.440000000000001,-2.0428621071744955,5.401725883169055,-7.85530218286495
12.45,-2.0835117720846554,5.501563239745696,-8.011210448982071
12.46,-2.0324854519184536,5.403508137995186,-7.961601503043676
12.469999999999999,-2.0845212736674106,5.306422429609344,-7.94669936602091
12.48,-2.046124207195183,5.315585123980751,-7.935743924199858
12.49,-2.147356864593526,5.416084893069984,-7.877377144229577
12.5,-2.0647241251948656,5.4437349410166584,-7.920905202512431
12.51,-2.0512550057219827,5.430291576502389,-7.8894059664791465
12.52,-2.204238604110762,5.418179335266101,-7.9395764952397165
12.530000000000001,-2.0974262028196686,5.466005776333628,-7.8950070189804045
12.54,-2.066279423395783,5.378815380280608,-7.865952416136767
12.55,-2.1996351905279807,5.448253049649904,-7.939920001759524
12.56,-2.0669710054439,5.319430050106146,-7.862823488623599
12.57,-2.141051173143973,5.3531176224818555,-7.8979827305561505
12.58,-2.208611025141483,5.3051583656502235,-7.847161877422349
12.59,-2.18746280243906,5.378725046286297,-7.9084628748176256
12.600000000000001,-2.16802732540725,5.386922833093251,-7.878410013026541
12.61,-2.203367930295068,5.391521508857995,-7.89870618653917
12.620000000000001,-2.1914099367796296,5.385303349637426,-7.900813249985445
12.629999999999999,-2.2755157629134066,5.332036719307378,-7.882505861734905
12.64,-2.232103003122749,5.364920251080791,-7.868184573937775
12.65,-2.3223001495983624,5.29539081724284,-7.957198391033026
12.66,-2.268173334038072,5.434068651863165,-7.822856094815879
12.67,-2.31875905274576,5.346183390921743,-7.9874607691502595
12.68,-2.321245649953611,5.332191561887705,-7.928780039118664
12.690000000000001,-2.2335236289002385,5.431167980959664,-7.899436423319679
12.7,-2.2515753806579077,5.284507898423661,-7.874410154585976
12.71,-2.286449856634222,5.2850545331104035,-7.8166454670313765
12.719999999999999,-2.3822413679145664,5.281051177558718,-7.98891565795223
12.73,-2.3541180254897913,5.326811807983878,-7.922053305141806
12.74,-2.2882673142349454,5.345945255973682,-8.003797971432595
12.75,-2.3524134905355822,5.355321094258798,-7.896782720730126
12.76,-2.2540623560745447,5.440726315733653,-7.885806610493139
12.77,-2.360844618216693,5.193259971456609,-7.820997027662563
12.780000000000001,-2.381341733381771,5.3295894648673094,-7.895769746477779
12.79,-2.4167855162588365,5.264533525607293,-7.850983115609014
12.8,-2.404989800654305,5.256123172882346,-7.875493179736238
12.81,-2.4295789650022948,5.247325936034608,-7.928065419279315
12.82,-2.396789967788757,5.225563634936993,-7.978485859412148
12.83,-2.3945513433392627,5.3477331271845445,-7.896138863496771
12.84,-2.4918279481015158,5.297943935967209,-7.986461069586403
12.850000000000001,-2.529182927476165,5.249128695376971,-7.849177913385505
12.86,-2.564474973741198,5.307477378357326,-7.924238436180468
12.870000000000001,-2.457259017589693,5.156075928330575,-7.85868773203135
12.879999999999999,-2.5477710809045613,5.156761220997513,-7.94488222900863
12.89,-2.6101415702171797,5.105810730011932,-7.909966915640833
12.9,-2.492912360382146,5.1709697892591295,-7.915592396713717
12.91,-2.3974853628426076,5.205075824901475,-7.931074245360662
12.92,-2.532182569710954,5.193003414129523,-7.953328392975608
12.93,-2.4996476486378505,5.186016593228816,-7.915056519411822
12.940000000000001,-2.5471232022017385,5.09850531552156,-7.984081243559855
12.95,-2.5657507980758134,5.199544421579397,-8.00144778046901
12.96,-2.5243931432873463,5.161516676638269,-7.882146077976566
12.969999999999999,-2.594350198851315,5.176156940894091,-7.911348193156659
12.98,-2.575905059013614,5.034655574825483,-7.947938214877309
12.99,-2.5825765342702542,5.134478435429293,-7.871608168220951
13.0,-2.6414010930593674,5.048946812506128,-7.9719915865374995
13.01,-2.567677845005631,5.077721288742417,-7.896310931353271
13.02,-2.63525944032878,5.113379490035317,-7.95761414116875
13.03,-2.6734781512066257,5.080111358494058,-8.021680305750989
13.040000000000001,-2.6179926465571954,5.0216969746490445,-7.88219303548724
13.05,-2.6988164433506254,5.053127012962985,-7.929313303686777
13.06,-2.6615064084092395,4.964598281382675,-7.98925437875586
13.07,-2.672341212298392,5.08687264465161,-7.95129906793294
13.08,-2.626507513423629,5.007102063483394,-8.012396057369218
13.09,-2.6659315024746073,5.061123740350696,-7.955404754665258
13.1,-2.699728838909639,4.966522854846895,-8.121164622879295
13.11,-2.6663470698116747,4.954147282751559,-8.057445505059349
13.120000000000001,-2.646429581756869,4.929417063556286,-7.962432525385622
13.13,-2.696700563847057,4.998559330194444,-8.028912756027573
13.14,-2.732670979724138,4.906227450252699,-8.01118077206316
13.15,-2.8073242327405894,4.9607015334475575,-8.094117554855803
13.16,-2.8034780619823465,4.895946511994579,-7.93969680756809
13.17,-2.7739195886740355,4.802693192265751,-7.977966072311943
13.18,-2.797515825914251,4.8592229755229805,-8.05301872259562
13.19,-2.784716403000962,4.81485592911572,-8.068799657980632
13.2,-2.780808596490462,4.861404721381553,-8.002752520953603
13.21,-2.7653752170483052,4.7859132756766,-7.960863523017216
13.22,-2.8035489383187024,4.87728257651387,-8.018138722226267
13.23,-2.783808321123453,4.811806521601557,-7.963160612840623
13.24,-2.812964223508735,4.792683597142036,-8.123875572757056
13.25,-2.9229608294746887,4.81938793289068,-8.124816772655022
13.26,-2.8790987238148578,4.819645709289438,-8.149464981211088
13.27,-2.8472255621663356,4.7551298326265545,-8.07418034991586
13.28,-2.908339811438883,4.702086800592385,-8.093817507562969
13.290000000000001,-2.825637070881452,4.636288287742657,-8.116602261349522
13.3,-2.7868188266569645,4.674852414534671,-8.075025372669797
13.31,-2.8100854501603334,4.662290881446839,-8.060430902366708
13.32,-2.8893070612358556,4.682329695651256,-8.204963751893107
13.33,-2.8116540742803413,4.64337382997365,-8.165235632358526
13.34,-2.8862564493191982,4.678511483269737,-8.101158172056257
13.35,-2.9179874296616752,4.596778933096193,-8.172401338760181
13.36,-2.9391903324357394,4.607719197484019,-8.195843294313176
13.370000000000001,-2.9309744034243157,4.6527439843399,-8.11199302982292
13.38,-2.9425340251196905,4.593439730747112,-8.234448922552017
13.39,-2.921822078078584,4.555981261120949,-8.192172807711794
13.4,-2.9294752308153313,4.511351707887608,-8.167846158977998
13.41,-2.9444559020392025,4.492084593576562,-8.220217299111827
13.42,-2.9298086981750315,4.463344498681634,-8.159678610869788
13.43,-2.899113725983648,4.460785908224392,-8.234651218259652
13.44,-2.91810169554208,4.507413058743563,-8.143206986441447
13.45,-3.0467004940163602,4.440161631671103,-8.22741420551303
13.46,-3.106970578533561,4.365226776671683,-8.195109365457947
13.47,-2.939320088626486,4.5024167349485165,-8.1989734149222
13.48,-3.0610841220650813,4.411133179590073,-8.275307810555228
13.49,-3.0106250061569138,4.305748569341798,-8.35431448484536
13.5,-3.0644812887030963,4.334798647757445,-8.24136355021735
13.51,-3.102605820541924,4.343065675178237,-8.263598612071162
13.52,-2.991906991988547,4.4032165075823855,-8.247282601044473
13.53,-2.9874377781795247,4.242882495818683,-8.294308994507826
13.540000000000001,-3.0605784527083713,4.327227429710189,-8.312459227272154
13.55,-3.1676043440899764,4.3283734459755925,-8.198514567458762
13.56,-3.0716055617172264,4.206776999342772,-8.380600096181084
13.57,-3.0308859755671778,4.203981892572416,-8.278371483022594
13.58,-3.130546232236732,4.145527655651523,-8.351926786055971
13.59,-3.0534986929282693,4.166493714583166,-8.348153010754054
13.6,-3.0694396903930414,4.153999466182428,-8.355424931577906
13.61,-3.0456585236137093,4.16781263536785,-8.387984154848738
13.620000000000001,-3.0745342912194005,4.168179901775356,-8.327529435770122
13.63,-3.1349981978585277,4.05494639219764,-8.29487083371119
13.64,-3.0322887677666226,3.9725057435788256,-8.349247463382609
13.65,-3.105757486118503,4.048171360636097,-8.375955544594
13.66,-3.1048508943462956,4.04211335533707,-8.43885312754609
13.67,-3.155744644198221,4.017952001670288,-8.37212484900736
13.68,-3.136781781306948,3.9670343432542605,-8.298610779527301
13.69,-3.164334996210468,3.9673352475558565,-8.43395086430896
13.700000000000001,-3.1341600511226475,4.014442775357029,-8.442227488064725
13.71,-3.045285835151578,3.935173906229088,-8.460017823283403
13.72,-3.2047653792700648,3.874679733227977,-8.46499059255277
13.73,-3.222087936386749,3.8454440459888803,-8.586361401176031
13.74,-3.0730313063144727,3.838912467338949,-8.437439795073374
13.75,-3.162176305938107,3.9060391466838853,-8.508581479638627
13.76,-3.1902243339102774,3.791680649181667,-8.55544506410985
13.77,-3.1097762462578635,3.776346542724294,-8.445914742393283
13.78,-3.196993184200599,3.7295587713723473,-8.546330317030323
13.790000000000001,-3.0802929261701357,3.78481000689797,-8.517829484962013
13.8,-3.1425181369996555,3.8038878835715804,-8.436250492978308
13.81,-3.2055709707380866,3.7043112505715707,-8.588718516677552
13.82,-3.078010848354288,3.6616538280462905,-8.603579844114776
13.83,-3.2208026915685743,3.634939538162453,-8.522182476713764
13.84,-3.1579926306344306,3.489321530446899,-8.486875476467267
13.85,-3.1846529320544428,3.6210827865938473,-8.631771750027188
13.86,-3.1389903079781494,3.5656744877679034,-8.541376314169955
13.870000000000001,-3.130401215927084,3.555377402855309,-8.541416834975045
13.88,-3.211215506870763,3.473235203170537,-8.68212927840805
13.89,-3.2547650258414835,3.4642880399447513,-8.547947618791135
13.9,-3.19831336769826,3.4375174557288575,-8.552739371236878
13.91,-3.259354956339705,3.483563617210857,-8.620850031541815
13.92,-3.1288963558132568,3.387814897617508,-8.55132719193011
13.93,-3.226774747024509,3.485013702283459,-8.565796721018783
13.94,-3.2558426001784455,3.376409708622159,-8.62612839049048
13.950000000000001,-3.232256679461529,3.2649272006324868,-8.662509707551678
13.96,-3.312700294809048,3.295988359391337,-8.697218917267312
13.97,-3.297717032461874,3.24339661316665,-8.659081287658593
13.98,-3.1928470020175888,3.139687066539011,-8.637324835012887
13.99,-3.2893827478203885,3.3026674645113356,-8.690613949341362
14.0,-3.312492842797094,3.231001470494921,-8.792853718697273
14.01,-3.2368627937660515,3.1955186357858185,-8.628096356437561
14.02,-3.207897194776145,3.150006692854482,-8.690552680712315
14.03,-3.2346604977715,3.0453790082363756,-8.727553856307162
14.040000000000001,-3.224170286618305,3.0629083775153054,-8.67419909590348
14.05,-3.3151156377146247,3.1016544368552177,-8.64928366293496
14.06,-3.351608292572244,2.979348231596896,-8.87404254612141
14.07,-3.208631575784874,2.8775331399034387,-8.720636566053495
14.08,-3.3029513331240934,2.9648480927245737,-8.82205500948037
14.09,-3.3024166197325737,2.9410676055056415,-8.734108462083423
14.1,-3.2264613965707185,2.9267569455881413,-8.760976327840186
14.11,-3.2679942078865003,2.928100109605059,-8.743860953756684
14.120000000000001,-3.275884358114957,2.8951229023196516,-8.808848779833225
14.13,-3.193240066046597,2.847623499276663,-8.88575069197814
14.14,-3.3364158949434426,2.865778881071001,-8.82277119904909
14.15,-3.260536106869789,2.7012469838589155,-8.78803498067164
14.16,-3.3067038835552545,2.7734945475950874,-8.765691449473406
14.17,-3.2986896168214184,2.7505401568332193,-8.883094132526283
14.18,-3.238198733406633,2.6280616899934834,-8.781147520557624
14.19,-3.291671493229779,2.585602620268654,-8.872847285593796
14.200000000000001,-3.2925277759129123,2.5940361794175515,-8.830238150600525
14.21,-3.2681346552662873,2.5687251560599287,-8.881714857552083
14.22,-3.3422632160506525,2.6098249808864176,-8.85492239068181
14.23,-3.3681697080743382,2.5116627256986894,-8.827197762881179
14.24,-3.380581390535751,2.469692825226102,-8.940851753250367
14.25,-3.42872850150785,2.4519351419404813,-8.921153161693104
14.26,-3.229608066687237,2.5083420876219016,-8.88551270693269
14.27,-3.3895245781983694,2.422844430209676,-8.782229522978978
14.28,-3.347310539820573,2.3829007439513146,-8.952959719210373
14.290000000000001,-3.351910161558061,2.3559244026279633,-8.815227491719266
14.3,-3.324458716753529,2.3954805414190004,-8.824388174761088
14.31,-3.3007396419906634,2.2627643771684305,-8.936790039442535
14.32,-3.3001381545705515,2.3352375459992705,-8.9540860348159
14.33,-3.3738888829562086,2.2491209916102965,-8.980973186547574
14.34,-3.354602115461077,2.1996052886903734,-8.95690798010194
14.35,-3.333565869496388,2.3015985688847893,-9.030896989079706
14.36,-3.3615160616466593,2.0925972403878945,-8.971370207993587
14.370000000000001,-3.2700386492442077,2.096420172499088,-8.899644408914561
14.38,-3.3271193716449057,2.0211089191936966,-9.011904628286768
14.39,-3.316124174420752,2.098881586079663,-9.000179202741826
14.4,-3.3208616836988387,2.104149147239239,-9.079922167875864
14.41,-3.2964074629327627,2.0715214902696566,-8.982812636897075
14.42,-3.3470431989202494,2.0174641182666995,-8.99486960305363
14.43,-3.4218866955362786,1.9145339165466189,-9.011412784747801
14.44,-3.3379492106819026,1.8742093414041447,-9.03186867313434
14.450000000000001,-3.3913276413028424,1.7768788139817255,-9.042018782537184
14.46,-3.385954487372204,1.9301076344426649,-9.008562547419139
14.47,-3.330906968210818,1.819551549893039,-9.041297139651167
14.48,-3.2989501822465677,1.7392068223720727,-9.030227529026282
14.49,-3.3603775668184293,1.7978241766660987,-9.041266855281986
14.5,-3.3465139411384652,1.6503157330452591,-9.001803577351112
14.51,-3.2772969207817355,1.6867349777784235,-9.030002279575388
14.52,-3.350759710018044,1.6251409647696218,-9.060003071276602
14.53,-3.233040534344124,1.6329947990085945,-8.999435430257773
14.540000000000001,-3.3351141450071577,1.5650921166449256,-9.059968730394223
14.55,-3.451630315495343,1.4628569466053358,-9.021273985885733
14.56,-3.3260652573274783,1.5062387770824055,-9.061628388079173
14.57,-3.344752188907767,1.52188523507483,-9.189437416302377
14.58,-3.299337848213181,1.434890120615402,-9.03737733959652
14.59,-3.3301194039319846,1.4419438529850677,-9.101048693551654
14.6,-3.3705918646464856,1.3176784297747937,-9.115503640561089
14.61,-3.424712180892535,1.3353397390795179,-9.103846021016071
14.620000000000001,-3.3737142473019173,1.2720576227519673,-9.140078459772752
14.63,-3.405492537030931,1.3071964789494102,-9.11630125142755
14.64,-3.3916337347563137,1.2379216716881043,-9.161976638393641
14.65,-3.332757312338121,1.2372872475301795,-9.07330534493191
14.66,-3.2782073050124345,1.2235438246476684,-9.147239718886716
14.67,-3.341422884563848,1.1700537047251365,-9.16513535982163
14.68,-3.420342184658795,1.1153843742307865,-9.196602095043776
14.69,-3.337647115595124,1.0180161982340317,-9.1411697328999
14.700000000000001,-3.2993125470877382,1.0339300316703117,-9.14940828302833
14.71,-3.388837802780834,0.9735030028365045,-9.143399253399844
14.72,-3.3641917252896367,0.9489896696566394,-9.218141004542865
14.73,-3.3558363501222543,0.9134501691588934,-9.250695842880685
14.74,-3.3948332629433216,0.8491147841921164,-9.143115421040106
14.75,-3.322129619323267,0.7661300155225855,-9.103820327740848
14.76,-3.3594840609886445,0.7964288954594301,-9.232926186398831
14.77,-3.331290775996908,0.8052988753523236,-9.105590611103864
14.78,-3.395410497837245,0.6939711944300877,-9.174218831246838
14.790000000000001,-3.371615055624927,0.7278721344068656,-9.192016248216346
14.8,-3.312267100829025,0.7877688001211828,-9.214685755293742
14.81,-3.3656096471887653,0.7095364974085643,-9.267075444220062
14.82,-3.2591394277005716,0.706151529550223,-9.151399870130328
14.83,-3.3639268878591047,0.6090856905370499,-9.242398439212892
14.84,-3.33110614683181,0.6134252580100937,-9.245334913460024
14.85,-3.294044011643128,0.48433920232866756,-9.159368935035035
14.86,-3.4098628956948467,0.4537768782136826,-9.305628903357789
14.870000000000001,-3.4251940120382813,0.31446369807798424,-9.29006752739287
14.88,-3.411583277793675,0.476126750716098,-9.217095314375863
14.89,-3.270256098181304,0.4592079882896223,-9.203718058298477
14.9,-3.3590010257963208,0.3198803787905379,-9.196231608412985
14.91,-3.2014589672040437,0.3001658465902608,-9.23753640003737
14.92,-3.355480146995152,0.24047285941376245,-9.097797908698517
14.93,-3.315877085597865,0.2625811248884274,-9.237472446546237
14.94,-3.2457741112581773,0.26495911578852666,-9.239269808761975
14.950000000000001,-3.220288024137111,0.086821103089951,-9.26912353847762
14.96,-3.215168678783212,0.15966362960405958,-9.224513373633311
14.97,-3.255414893236486,0.09057652251341632,-9.201285771030127
14.98,-3.262157613167655,0.07528626673324738,-9.173070479077214
14.99,-3.281200144483567,0.057762334906290735,-9.308819416521319
15.0,-3.2693124394612676,-0.009410121938639701,-9.247650924475423
15.01,-3.3331320610972175,-0.039999072154302276,-9.213901943622234
15.02,-3.3437633147928603,-0.08033868233027042,-9.207660125141615
15.03,-3.3002410356100222,-0.055958141994682235,-9.237351275747905
15.040000000000001,-3.3057388670123236,-0.1183671830904128,-9.21111298315974
15.05,-3.316986777587779,-0.16310780004592457,-9.279127571921803
15.06,-3.2565401939429908,-0.272515290497919,-9.161118999599438
15.07,-3.240566985724371,-0.26272471473444786,-9.189607453227179
15.08,-3.280823107817688,-0.2336859515325392,-9.306599542298775
15.09,-3.2082167185198087,-0.3115522844049888,-9.293112340787456
15.1,-3.3359660523208903,-0.31527062697158537,-9.2915971049181
15.11,-3.2852915871864563,-0.2947224438822953,-9.205136213488565
15.120000000000001,-3.308115432220558,-0.36590767214673436,-9.302944751817419
15.13,-3.3622055749956736,-0.4479574711041138,-9.254823299013022
15.14,-3.269555974827354,-0.5129280923623175,-9.214990778363742
15.15,-3.2679913240842384,-0.6498035563896405,-9.240378556816895
15.16,-3.182652325504852,-0.5652753264720777,-9.223360660371291
15.17,-3.223143993292047,-0.6078676350369545,-9.288720649259984
15.18,-3.302192630265743,-0.6067389228064926,-9.204704180469841
15.19,-3.1545163656145956,-0.668620376106343,-9.264015012670063
15.200000000000001,-3.1823460549189244,-0.7115882789874844,-9.248384298748183
15.21,-3.2104086895537285,-0.8191572835918483,-9.218957267334773
15.22,-3.246892753216228,-0.8117768120078531,-9.224272405704056
15.23,-3.279534672281411,-0.7755080991243035,-9.226702004795651
15.24,-3.246106451022821,-0.7480770242879993,-9.263799582179866
15.25,-3.1689313744590706,-0.8732483331353382,-9.239505832630474
15.26,-3.124951527546412,-0.8864474537540991,-9.22257254723407
15.27,-3.1377701016031607,-0.8896447131908137,-9.289482973630232
15.28,-3.235065636537083,-1.0122069892750811,-9.24179636139747
15.290000000000001,-3.262234432168575,-0.9876767103871944,-9.197121150157912
15.3,-3.194779207097359,-1.0773568807690637,-9.278107267759923
15.31,-3.2857550676922194,-1.0313643568905588,-9.154031961822263
15.32,-3.1766239727549133,-1.1012652715563869,-9.145901770782984
15.33,-3.1955514848550677,-1.128097725326065,-9.26905762247155
15.34,-3.2068019755866994,-1.2162885940700567,-9.136233547790841
15.35,-3.25850395744636,-1.1758972638520913,-9.208505344515432
15.36,-3.1482973726522916,-1.1410537405773407,-9.177510114487905
15.370000000000001,-3.1957609767570583,-1.3296741856282297,-9.220276373919926
15.38,-3.2227103797554006,-1.3302029018010506,-9.146198537904567
15.39,-3.3028563626638165,-1.3355164964080202,-9.168852610651305
15.4,-3.155587887475091,-1.3416024831667266,-9.22657169401997
15.41,-3.060508695095815,-1.4426684786376902,-9.24073166843952
15.42,-3.060907756619439,-1.5900519437974585,-9.25199569287495
15.43,-3.1616153504713145,-1.41408956667309,-9.165994615420862
15.44,-3.1636014079438115,-1.4776101531984722,-9.143082079415773
15.450000000000001,-3.1047228764533186,-1.6363055235602477,-9.13537482366664
15.46,-3.172692233606811,-1.6129940148812079,-9.169943847879647
15.47,-3.1022353990734843,-1.5375970989395458,-9.217921262294928
15.48,-3.0735137455173334,-1.5769387442377107,-9.190107536110563
15.49,-3.0449046704625427,-1.6356490975798228,-9.094225197316888
15.5,-3.1056334894109456,-1.724567938542195,-9.171820149300206
15.51,-3.1051248845709916,-1.7447213511069688,-9.136071988711267
15.52,-3.1330967722324576,-1.7884511139463717,-9.192588415674873
15.53,-3.124739218580178,-1.7584511489861783,-9.117449463194562
15.540000000000001,-3.088857894387377,-1.8915363092803283,-9.152546116678554
15.55,-3.0532456940656,-1.920836489669973,-9.072620937261942
15.56,-3.019956109172458,-1.8627549009598523,-9.081485660782375
15.57,-3.0997570923214823,-1.9481271776567883,-9.140068998232055
15.58,-2.9788680366331683,-1.9095431163768355,-9.116651146798288
15.59,-3.060904565188906,-2.0445149397561786,-9.132823014728583
15.6,-3.0422043544545856,-2.0460651279131015,-9.171104070505502
15.61,-3.072225948637926,-2.1217463521660176,-9.13778664332002
15.620000000000001,-3.1497486097984626,-2.107468259912731,-9.07970363688812
15.63,-2.9779475040738363,-2.2138842237255214,-9.067970361439922
15.64,-2.978862790017218,-2.19636742486762,-9.07134462142166
15.65,-3.023268697483135,-2.2757343288200356,-9.088318206218464
15.66,-2.999292333236074,-2.2010669798814644,-9.02095964010866
15.67,-2.970226764377153,-2.2316794328945155,-9.058740208886945
15.68,-3.0674752739921236,-2.385670684145354,-9.020982913587668
15.69,-3.009067364695839,-2.264013443471466,-9.138987693180301
15.700000000000001,-2.9361108354520176,-2.237287347994831,-9.240498388013783
15.71,-3.0316905643064778,-2.391207013215782,-9.024195609622645
15.72,-2.9473930026134743,-2.4568098019537294,-9.103558228089911
15.73,-3.022937676200513,-2.3146805267764634,-9.036806878282816
15.74,-2.924767753654306,-2.5528833519071554,-9.035084033101146
15.75,-2.9427950742166127,-2.516861079416172,-8.934335717854742
15.76,-3.0146365202807224,-2.5397090814376284,-8.987365316995314
15.77,-2.86845317582605,-2.512147644039299,-8.99266558207966
15.78,-2.956173324840918,-2.592022674903322,-8.952637530387323
15.790000000000001,-2.9526534634925743,-2.6654344264315064,-8.969527114445741
15.8,-2.8947530765052685,-2.7184423182398794,-9.004238296146339
15.81,-2.839934069699205,-2.718240579621334,-8.92112185661727
15.82,-2.9406852431004062,-2.7816470371404014,-9.023464337562746
15.83,-2.879282298022548,-2.7589441561058186,-8.945036849099063
15.84,-2.8533416375615284,-2.8194623477294734,-9.031742512788018
15.85,-2.832487499410121,-2.895752710062867,-8.937275330084168
15.86,-2.8506252768885814,-2.787971789359469,-8.930876483724521
15.870000000000001,-2.8700476928448553,-2.9051697621152397,-8.849702870750187
15.88,-2.885269244322793,-2.973127664633372,-9.004721453216098
15.89,-2.8317205736325395,-2.9474449437846664,-8.949413029241832
15.9,-2.8817174720418,-2.9647998991476325,-8.871080527604194
15.91,-2.9662056366451184,-3.084602495854125,-8.8882461341495
15.92,-2.7902826700101295,-3.0096305247227892,-8.888746773339626
15.93,-2.758831543126869,-3.1073764866583553,-8.938272840384288
15.94,-2.914037730782722,-2.998143715484787,-8.912666329768665
15.950000000000001,-2.8381857897262277,-3.0860434322714414,-8.813489381964738
15.96,-2.7484951325428506,-3.1606514308849665,-8.87089091749359
15.97,-2.668277233944668,-3.206197393089126,-8.842080853594746
15.98,-2.7617571809002928,-3.2023365017269256,-8.859102347329541
15.99,-2.7907876966658427,-3.194463179314547,-8.904953374503894
16.0,-2.7550690080677245,-3.254256471637516,-8.791528190625383
16.009999999999998,-2.6686630843470573,-3.2915821744756157,-8.805441527470505
16.02,-2.7611340474109207,-3.3054105907481723,-8.70767194344994
16.03,-2.7601707179516315,-3.3659883182904795,-8.866051084838599
16.04,-2.7356700522476887,-3.3802823336403214,-8.766430585864507
16.05,-2.7504676789550366,-3.494597738657503,-8.865394030749801
16.060000000000002,-2.687882854750281,-3.368666323996645,-8.784178893036099
16.07,-2.603944456153742,-3.429314741182455,-8.735423478207753
16.08,-2.6601334485804053,-3.5096859401564706,-8.88003276038271
16.09,-2.6799612844464895,-3.4026904978420065,-8.7788258536322
16.1,-2.6729376743517874,-3.5197451719715818,-8.788870392239266
16.11,-2.7274575990920793,-3.602225653537889,-8.787917322050031
16.12,-2.596041106669599,-3.5337569032159464,-8.725648681421209
16.130000000000003,-2.6349347255112545,-3.5827185845295006,-8.680946623601814
16.14,-2.630861010098395,-3.6087702509293256,-8.735699613377601
16.15,-2.452923809988016,-3.675515441866574,-8.710800737431624
16.16,-2.588331889925646,-3.657280576960287,-8.70738505618324
16.17,-2.631497756836966,-3.71831941343765,-8.705023251103471
16.18,-2.605813225403438,-3.7027081512041016,-8.751582434324094
16.189999999999998,-2.517608825143266,-3.8508729258575514,-8.633685339579023
16.200000000000003,-2.559852131542124,-3.8022857861872423,-8.66633190913018
16.21,-2.627863022846763,-3.71929588507158,-8.653325002409208
16.22,-2.5003702346353345,-3.868412853720238,-8.705366701253112
16.23,-2.5700706850584756,-3.8847507583458443,-8.679970579065229
16.240000000000002,-2.433279791024962,-3.9012990123152145,-8.657782258520236
16.25,-2.4631730341357994,-3.963825321727913,-8.717646876954593
16.259999999999998,-2.5297220084599092,-4.037524329423322,-8.71730801063834
16.27,-2.43343545189962,-3.962505341119027,-8.654911355679893
16.28,-2.484173893455325,-3.9678884944279265,-8.590719052204498
16.29,-2.4349585907883338,-4.000851146445211,-8.64147801141646
16.3,-2.443341610942729,-4.028852510611218,-8.65174382584115
16.310000000000002,-2.4998275999060855,-4.0426767797496295,-8.633528096934123
16.32,-2.479569479848008,-4.0167438408965355,-8.607560458376316
16.33,-2.3857270430517286,-4.100301474358135,-8.594496531816914
16.34,-2.443747991011966,-4.1422120227246095,-8.460549928173691
16.35,-2.4369270042348967,-4.1501277037027435,-8.508131002288929
16.36,-2.454187455570106,-4.1295017720680285,-8.501674419810294
16.37,-2.3748896816513563,-4.1100989395632155,-8.48655169821776
16.380000000000003,-2.2825334352933226,-4.2341714940699235,-8.587007288032332
16.39,-2.428578287749914,-4.219713858362031,-8.59028937548887
16.4,-2.3634847221684443,-4.2294705093596106,-8.576640363288798
16.41,-2.283530991370844,-4.317576094121633,-8.446719478187998
16.42,-2.3475228642759833,-4.288315520986627,-8.532975967362935
16.43,-2.310273613430891,-4.383839034775741,-8.560380857913943
16.439999999999998,-2.375316103930855,-4.420056009455226,-8.51158602432952
16.450000000000003,-2.2900382967549326,-4.334142937776471,-8.4942175635541
16.46,-2.310021274099108,-4.392378801286047,-8.461147011023273
16.47,-2.240541342039552,-4.383603331402436,-8.454331229686744
16.48,-2.2195758798299794,-4.414971317759732,-8.500631031391379
16.490000000000002,-2.1385380896406563,-4.483082174660135,-8.417315915470095
16.5,-2.228059641571604,-4.456536341954478,-8.4759700406164
16.509999999999998,-2.229730643729792,-4.535765471562728,-8.444272088371575
16.52,-2.2252347275911,-4.424223374507406,-8.394605130336707
16.53,-2.241500258424343,-4.581056392400401,-8.453559490929884
16.54,-2.195760466215231,-4.542356816227807,-8.44250096681822
16.55,-2.216252353747598,-4.60381411049692,-8.377056713031832
16.560000000000002,-2.181811967553322,-4.542135265759252,-8.442176589357326
16.57,-2.1130631802807347,-4.606006023067958,-8.411223785024793
16.58,-2.217933734149723,-4.633967786831524,-8.356937102537119
16.59,-2.099231936613339,-4.583795773337509,-8.274806719792787
16.6,-2.078945283141741,-4.643226668755195,-8.34007667080726
16.61,-2.1392357521129752,-4.636928823805844,-8.339600198917928
16.62,-2.2279126830095635,-4.729710249995798,-8.329628440784624
16.630000000000003,-2.1406551796392317,-4.768587333204719,-8.402816705233167
16.64,-2.033815233262327,-4.710507820055512,-8.336419653138273
16.65,-2.0881661915034497,-4.749151047897358,-8.33678501966637
16.66,-2.1253028859649485,-4.719045875644658,-8.312370850827703
16.67,-2.088848876466311,-4.771339872339637,-8.315835496952852
16.68,-2.009809068413334,-4.773885085236513,-8.295945429013099
16.689999999999998,-2.012691128381972,-4.8819195505331034,-8.323833220487945
16.700000000000003,-2.0401201622178013,-4.722756931959802,-8.298720030594467
16.71,-2.034618758676375,-4.841635636202586,-8.356494911795961
16.72,-2.023927874917759,-4.8146049758000435,-8.304615459128529
16.73,-2.0384815740658246,-4.907165356900791,-8.212659837409904
16.740000000000002,-1.8995722664250567,-4.86565202740289,-8.259908517997294
16.75,-1.9843961710287394,-4.961701454094068,-8.270609589668423
16.759999999999998,-1.8953206519787327,-4.889277111694286,-8.168540330748577
16.77,-1.8679707640660812,-4.944814745474619,-8.325240714465837
16.78,-1.8819387942309491,-4.940505964898489,-8.306594877648168
16.79,-1.9412131379606812,-4.921829815306131,-8.159481464721695
16.8,-1.887183639810987,-5.032931808998829,-8.236886851187712
16.810000000000002,-1.8962784148004177,-5.01991858376965,-8.245455954298508
16.82,-1.9279129163779618,-4.977029596561286,-8.28750406762405
16.83,-1.8541299786020344,-4.90899884726479,-8.199452321862331
16.84,-1.9168812150752153,-5.03464013744552,-8.188984738744102
16.85,-1.78608793661662,-5.011817001038779,-8.265381426415818
16.86,-1.856207084542505,-5.060171555021105,-8.212198896233204
16.87,-1.8103844202669155,-4.970970971229115,-8.21656979013647
16.880000000000003,-1.7937063004450167,-5.168515409577795,-8.181685523452153
16.89,-1.8082065802820917,-5.089304870462141,-8.245219790372577
16.9,-1.7532798659409778,-5.188004961722865,-8.121516319634228
16.91,-1.7936757915300672,-5.2445581406830195,-8.133263421957805
16.92,-1.7136448673882008,-5.116667954353277,-8.192239786654149
16.93,-1.8117511545094231,-5.136687086777266,-8.180014781701953
16.939999999999998,-1.7253391894058145,-5.16983390365482,-8.171215177625003
16.950000000000003,-1.6218815221182283,-5.172640741753349,-8.19859804120121
16.96,-1.7559783951146695,-5.023963689737636,-8.177231866056504
16.97,-1.726947235839197,-5.203143433263047,-8.164041837680264
16.98,-1.6544273045260915,-5.175892614499782,-8.065443857428164
16.990000000000002,-1.6581711196852238,-5.244839125008775,-8.094407225097074
17.0,-1.6366112696308268,-5.20838895933545,-8.090749038217563
17.009999999999998,-1.6166412910481043,-5.2456493890772755,-8.114822740294285
17.02,-1.596288008489038,-5.264657923627619,-8.1851170638033
17.03,-1.5594283409708076,-5.163388310811478,-8.127352221672334
17.04,-1.581277724684676,-5.2054819407881565,-8.072876257573341
17.05,-1.6006531956831649,-5.267318294445428,-8.180533772102542
17.060000000000002,-1.541749873040574,-5.398986923402938,-8.082110355754146
17.07,-1.4671395561158662,-5.31125352781521,-7.994223399437395
17.08,-1.5554875455449184,-5.167284249745836,-8.053777980116038
17.09,-1.5842719015274174,-5.3230068774882096,-8.032782136533404
17.1,-1.4668486167962103,-5.265156472755603,-8.089281971910655
17.11,-1.5148468226110596,-5.2568689680626175,-8.048618853243156
17.12,-1.6040545214264244,-5.326471599739136,-8.129826551419415
17.130000000000003,-1.4396116719930128,-5.387769348349484,-8.051161696149608
17.14,-1.4952795764116784,-5.475506913950424,-8.055359672963606
17.15,-1.4595392106242389,-5.327400524626508,-8.070811534898406
17.16,-1.4248821471604332,-5.410018029811399,-8.016839165081649
17.17,-1.4183943053714028,-5.367948210490452,-8.107016239657426
17.18,-1.3788546044201673,-5.446526016161657,-8.086972928307013
17.189999999999998,-1.4224794727613468,-5.404379710807887,-8.070496154938786
17.200000000000003,-1.3613981501455035,-5.396318091854363,-8.124505699569537
17.21,-1.386349661473432,-5.391263762116368,-8.059541659798045
17.22,-1.3227215686798903,-5.4669269441836,-8.154805600759055
17.23,-1.315154638126984,-5.357635491162212,-8.014590381463957
17.240000000000002,-1.3789272993940918,-5.45342360650535,-8.062793943207703
17.25,-1.264060321692517,-5.513202610236182,-8.089467288123046
17.259999999999998,-1.3313336540851737,-5.440632837428343,-8.103547718094362
17.27,-1.250280918217657,-5.4389675090273215,-8.072074364062626
17.28,-1.2584403225670695,-5.437963310787941,-8.024559182277569
17.29,-1.1709892211011894,-5.382994392730427,-8.030322735942454
17.3,-1.2601385411150514,-5.467833231762087,-8.091835224869753
17.310000000000002,-1.2524713239130112,-5.466702920170805,-8.0978204250273
17.32,-1.221990397212658,-5.520393505936288,-8.021745418828573
17.33,-1.2221663161508347,-5.4285199868065614,-8.089891745403746
17.34,-1.152972406787148,-5.464446440594306,-8.050075306958723
17.35,-1.2597217603871216,-5.498578199736381,-8.046292156365407
17.36,-1.2175019215397447,-5.576525987621222,-8.036398801586506
17.37,-1.204094650044745,-5.412587436357677,-8.008723569286486
17.380000000000003,-1.0890512516381008,-5.54950802596012,-8.11453380081197
17.39,-1.0368738057702107,-5.520803934460695,-8.146805763029041
17.4,-1.1134407872577912,-5.476238676763513,-8.079596063736899
17.41,-1.1024495669333487,-5.556699367860034,-7.961237104157208
17.42,-1.0762726241703306,-5.574062070229884,-7.950408709550692
17.43,-1.0074249613013515,-5.607898452379588,-7.9602766373576435
17.439999999999998,-1.0976073660824173,-5.467764942106526,-8.061916937351837
17.450000000000003,-1.02501957912238,-5.532986886899694,-8.141920380001256
17.46,-0.9738542495297167,-5.361075768472704,-8.170627788050387
17.47,-0.9832136078925939,-5.55866748475376,-8.08495344737503
17.48,-0.9844218030785842,-5.55633134870239,-8.065045456622213
17.490000000000002,-0.9294598292744144,-5.539635968862392,-7.991115281647317
17.5,-1.100263982129696,-5.500115417597537,-8.013875588387489
17.509999999999998,-0.9167781205407224,-5.536486306297359,-8.047129423475122
17.52,-0.9689247778101894,-5.482861529869406,-8.104340192727323
17.53,-1.0132816371212838,-5.5627074281287205,-8.10934960480727
17.54,-0.8816990565446177,-5.58295518556136,-8.05018122742598
17.55,-0.8240659539830404,-5.603681508160758,-8.02972625703481
17.560000000000002,-0.8850918077512576,-5.624642090805507,-8.046790024437955
17.57,-0.816027267787254,-5.5388567449571635,-8.120033213454942
17.58,-0.7684901147145017,-5.527289383832606,-8.03780294818963
17.59,-0.768773064419719,-5.542896320421515,-8.051187402438869
17.6,-0.7379173554920333,-5.448035172275394,-8.128276300957163
17.61,-0.7681883466718622,-5.447481704389705,-8.116332250284598
17.62,-0.7868848326324911,-5.524097745819008,-8.045177578915018
17.630000000000003,-0.8560995629428053,-5.595324533570194,-8.09392662941948
17.64,-0.7736324299102335,-5.532030987619317,-8.005455187058887
17.65,-0.7888032554032164,-5.531550303984028,-8.062679518520987
17.66,-0.6233893090809546,-5.532075609193153,-8.115002789814
17.67,-0.7260104668910123,-5.531560436833272,-8.094228244556593
17.68,-0.6963201926415944,-5.526599151962016,-8.093706664228772
17.689999999999998,-0.6601552602721968,-5.510300371927827,-8.136563984182636
17.700000000000003,-0.6707836567852593,-5.519593284195206,-8.14915288960251
17.71,-0.573430946161528,-5.474038584231128,-8.071942964926281
17.72,-0.6745214700594331,-5.462870187138293,-8.068347316765637
17.73,-0.6188502339082668,-5.5226501165374255,-8.08412952667145
17.740000000000002,-0.6508821582825065,-5.4095890568224245,-8.042368946108425
17.75,-0.6649245117519815,-5.517965019284783,-8.149147912259293
17.759999999999998,-0.6146636505332579,-5.545466537291002,-8.042377758805058
17.77,-0.571066216469468,-5.440947130864036,-8.175276526047043
17.78,-0.5758063580111409,-5.496060801462861,-8.185110508339951
17.79,-0.5740771746607591,-5.434124924104766,-8.22682596343962
17.8,-0.5948752060758709,-5.565166686456862,-8.16557502679937
17.810000000000002,-0.5138064671659611,-5.36994879046678,-8.17303347734368
17.82,-0.5699680318008886,-5.400339740532258,-8.126216840060545
17.83,-0.44179932932785215,-5.503155477369731,-8.145089112916516
17.84,-0.4607398654605759,-5.496042087554528,-8.221805246685015
17.85,-0.5227890865875203,-5.332255790636724,-8.186768102013957
17.86,-0.4504118790000273,-5.446298142854541,-8.190781710359218
17.87,-0.45758973647310686,-5.4444925975277645,-8.266185443445616
17.880000000000003,-0.3890445820781162,-5.509234254995623,-8.231711569120598
17.89,-0.32299340025757844,-5.406412889874481,-8.226582255203928
17.9,-0.4687787080854681,-5.39299627430313,-8.121836344302126
17.91,-0.35426481362937867,-5.338365892247799,-8.189518985537958
17.92,-0.3530109854536313,-5.43641862094138,-8.171654120118689
17.93,-0.2964180895114229,-5.434597054461211,-8.285461668006683
17.939999999999998,-0.30429885390289985,-5.327946429959242,-8.156681974094937
17.950000000000003,-0.33752391323151426,-5.291863710013671,-8.157295023457003
17.96,-0.30083839939572565,-5.412257266494201,-8.328318562790212
17.97,-0.30964107159745496,-5.270917147021368,-8.269811216908497
17.98,-0.2009876439258838,-5.314202717463121,-8.21599314869263
17.990000000000002,-0.2386651124761067,-5.252370250707146,-8.214889116557112
18.0,-0.12960865284568962,-5.301145993385254,-8.287450520943349
18.009999999999998,-0.21263384463203763,-5.414217083577539,-8.275307187326609
18.02,-0.22994921028142962,-5.285963534930829,-8.29649591618657
18.03,-0.25513843752527265,-5.2154137355734544,-8.267787847069892
18.04,-0.25452965257044213,-5.3029577936221335,-8.22021794817288
18.05,-0.22849584876547613,-5.267312141797711,-8.325482332435238
18.060000000000002,-0.12084586114453394,-5.24615783909791,-8.243826743347908
18.07,-0.09367617118862784,-5.37155804017225,-8.339972062659168
18.08,-0.1830796001469776,-5.1320401097512915,-8.35037259507671
18.09,-0.044173533641915015,-5.249495430075198,-8.274245285282296
18.1,-0.09798195548734062,-5.167753109228967,-8.276341891536031
18.11,-0.05139110284494105,-5.185782318669527,-8.287210711041306
18.12,0.03697970265554027,-5.106767912478277,-8.402991254370162
18.130000000000003,0.016311009113483203,-5.1373419685322235,-8.367995647876333
18.14,-0.026856497481346595,-5.157181294466849,-8.31112076863792
18.15,-0.0428882931448368,-5.177695637195393,-8.357839420224943
18.16,-0.09081820501963388,-5.0805067509349335,-8.4213204991664
18.17,-0.004084218193383463,-5.201245470607923,-8.35251113643575
18.18,0.03641712645640111,-5.062247842039204,-8.41902919182539
18.189999999999998,0.01271383270926868,-5.136258526973763,-8.30149377374723
18.200000000000003,0.07060778359348051,-5.005251140152512,-8.321977281019173
18.21,0.09610937341375876,-5.046154634790784,-8.37708071654514
18.22,0.09611812421850145,-5.008163122978413,-8.347367113535904
18.23,0.0899526074023721,-5.02221514565001,-8.420374087361362
18.240000000000002,0.14597462472420386,-5.099674465287026,-8.393601036155827
18.25,0.1747250923930042,-5.040629024896484,-8.366307893690115
18.259999999999998,0.11319096161121509,-4.949306180084299,-8.436300392298012
18.27,0.2533367496212086,-4.959722261802601,-8.469775189338778
18.28,0.19293597169381396,-4.893931499546285,-8.55074517309073
